# Real IMU Data from ESP32
# Format: timestamp,ax,ay,az,gx,gy,gz,mx,my,mz
# Recorded: 2025-11-04 00:53:40
973290657,-0.443079,-0.098196,11.474539,-0.075009,0.065816,-0.009326,0.025000,-0.371667,-0.343667
973300658,-0.471819,-0.040715,11.462564,-0.060620,0.064351,-0.007328,0.024000,-0.376667,-0.343667
973310660,-0.622705,-0.093406,11.390714,-0.073544,0.046897,-0.011858,0.023333,-0.377333,-0.339000
973320662,-0.673001,0.047900,11.369158,-0.096992,0.020651,-0.012923,0.026667,-0.379000,-0.347333
973330663,-0.505349,0.091011,11.464959,-0.109383,0.018786,-0.011191,0.023333,-0.378333,-0.343667
973340664,-0.313748,-0.112566,11.472144,-0.110582,0.017587,-0.011591,0.021667,-0.380000,-0.340667
973350665,-0.359253,-0.007185,11.498489,-0.106052,0.025047,-0.010925,0.023333,-0.375667,-0.340000
973360665,-0.385598,-0.081431,11.455379,-0.090198,0.036505,-0.012124,0.021667,-0.376667,-0.340000
973370666,-0.131726,-0.143701,11.436219,-0.082070,0.033574,-0.008660,0.024000,-0.376667,-0.335333
973380667,0.047900,-0.047900,11.421848,-0.089798,0.033708,-0.007461,0.024000,-0.378333,-0.338333
973390667,-0.277822,0.011975,11.383529,-0.100057,0.030110,-0.004796,0.026667,-0.372333,-0.336000
973400668,-0.857417,0.067061,11.457774,-0.133098,-0.024381,0.000000,0.024000,-0.379000,-0.338333
973410668,-1.228645,0.074246,11.615846,-0.163741,-0.058222,0.012524,0.025000,-0.372333,-0.344333
973420668,-1.307681,0.285007,12.209810,-0.181994,-0.295507,0.079939,0.021667,-0.380000,-0.340000
973430670,-0.826282,0.055085,11.488909,-0.183992,-0.645106,0.079939,0.027333,-0.378333,-0.337333
973440671,-0.359253,0.014370,11.455379,-0.192519,-0.500683,0.085801,0.024000,-0.378333,-0.337333
973450671,0.028740,-0.011975,11.361973,-0.172934,-0.298305,0.122440,0.025667,-0.378333,-0.338333
973460672,0.380808,-0.062271,11.376344,-0.167338,-0.240616,0.159877,0.027333,-0.375667,-0.340667
973470673,0.680186,-0.141306,11.479329,-0.159744,-0.355194,0.177730,0.020333,-0.377333,-0.340000
973480673,0.881367,0.038320,10.985955,-0.157879,-0.184525,0.256337,0.018667,-0.370667,-0.340000
973490674,0.615520,-0.196392,11.369158,-0.146288,-0.036106,0.318822,0.018667,-0.374000,-0.339000
973500676,-0.158071,-0.234712,11.472144,-0.150951,-0.141758,0.292709,0.022333,-0.377333,-0.337333
973510678,-0.440684,-0.313748,11.594290,-0.122573,-0.181061,0.233954,0.020667,-0.377333,-0.338333
973520678,-0.665815,-0.059875,11.797867,-0.102988,-0.360657,0.210639,0.019333,-0.378333,-0.338333
973530679,-0.694556,-0.141306,11.369158,-0.104187,-0.395697,0.143890,0.020667,-0.374000,-0.342667
973540680,-0.455054,-0.225132,11.333233,-0.090064,-0.285515,0.047430,0.019333,-0.375000,-0.340667
973550680,-0.122146,-0.146096,11.256593,-0.089665,0.048096,0.005729,0.020333,-0.375667,-0.340000
973560681,0.170046,-0.143701,11.189531,-0.090064,0.300303,-0.014256,0.020333,-0.376667,-0.336000
973570682,0.558040,-0.047900,11.110497,-0.092329,0.483763,-0.020651,0.022333,-0.375667,-0.340000
973580683,0.742456,0.083826,11.175161,-0.095793,0.791527,-0.015322,0.018667,-0.377333,-0.336000
973590683,0.761616,0.100591,11.196717,-0.107251,1.022150,-0.011058,0.026667,-0.376667,-0.336000
973600685,0.443079,-0.067061,11.151212,-0.108317,1.338707,-0.002531,0.020667,-0.375000,-0.336000
973610685,0.165256,0.086221,11.390714,-0.054758,0.188922,-0.017320,0.020667,-0.373333,-0.340667
973620686,-0.215552,-0.007185,11.333233,-0.029577,0.188922,-0.023182,0.020667,-0.376667,-0.340667
973630688,-0.313748,0.201182,11.124866,-0.025181,0.190920,-0.020651,0.025667,-0.378333,-0.335333
973640689,-0.589175,0.155676,11.373948,-0.044766,0.158412,-0.025580,0.020667,-0.380667,-0.337333
973650689,-0.974773,-0.105381,11.575130,-0.055025,0.141625,-0.035573,0.020667,-0.378333,-0.337333
973660690,-1.027463,-0.174836,11.512859,-0.049296,0.114579,-0.050228,0.021667,-0.378333,-0.333667
973670691,-0.804727,-0.055085,11.546390,-0.036772,0.112314,-0.076874,0.023333,-0.374000,-0.340000
973680691,-0.519719,-1.733994,11.136841,-0.050628,0.176265,-0.677614,0.020667,-0.376667,-0.340667
973690693,-0.148491,-0.071851,11.761941,-0.063418,0.105919,-0.061686,0.025000,-0.376667,-0.337333
973700693,-0.134121,-0.184417,11.136841,-0.019985,0.110182,-0.048096,0.025667,-0.375667,-0.339000
973710695,-0.301772,0.002395,11.378738,0.003864,0.123372,-0.047830,0.024000,-0.375000,-0.340667
973720695,-0.536484,-0.052690,11.270963,-0.009326,0.105919,-0.053426,0.019333,-0.376667,-0.339000
973730695,-0.481399,-0.119751,11.474539,-0.042368,0.075009,-0.115112,0.026667,-0.380000,-0.340667
973740695,-0.407153,0.079036,11.462564,-0.059821,0.055691,-0.154815,0.022333,-0.376667,-0.340667
973750696,-0.246687,0.110171,11.424244,-0.052360,0.069014,-0.256870,0.020667,-0.377333,-0.339000
973760698,-0.131726,-0.069456,11.505674,-0.041035,0.091796,-0.234753,0.019333,-0.377333,-0.345333
973770699,-0.086221,0.045505,11.517650,-0.006528,0.130700,-0.126969,0.019333,-0.378333,-0.338333
973780700,-0.287402,0.059875,11.426639,-0.005729,0.142424,-0.062485,0.022333,-0.373333,-0.338333
973790702,-0.752036,0.074246,11.409874,-0.057689,0.103654,-0.039969,0.023333,-0.373333,-0.340667
973800702,-1.154400,0.031135,11.472144,-0.064750,0.080472,-0.035440,0.026667,-0.375000,-0.335333
973810702,-1.178350,0.193997,11.409874,-0.043034,0.075409,-0.031975,0.030000,-0.372333,-0.335333
973820702,-0.931663,0.170046,11.496095,-0.066482,0.040636,-0.033574,0.019333,-0.377333,-0.338333
973830702,-0.730481,0.227527,11.481724,-0.125104,-0.006262,-0.036772,0.023333,-0.380667,-0.335333
973840703,-0.593965,0.210762,11.381133,-0.155214,-0.025047,-0.033974,0.020667,-0.378333,-0.336000
973850703,-0.330513,0.105381,11.429033,-0.174133,-0.029178,-0.032375,0.020333,-0.375667,-0.338333
973860705,-0.138911,-0.021555,11.464959,-0.173734,-0.022916,-0.035040,0.021667,-0.379000,-0.338333
973870706,0.035925,-0.055085,11.376344,-0.192119,-0.018786,-0.030243,0.020667,-0.379000,-0.337333
973880706,-0.119751,-0.062271,11.361973,-0.219432,-0.027179,-0.033308,0.021667,-0.376667,-0.337333
973890706,-0.512534,0.014370,11.390714,-0.208907,-0.014922,-0.030110,0.020333,-0.374000,-0.338333
973900707,-0.931663,0.038320,11.433824,-0.209573,-0.027179,-0.032109,0.023333,-0.376667,-0.338333
973910709,-1.029858,0.148491,11.407478,-0.215302,-0.041435,-0.023982,0.022333,-0.376667,-0.337333
973920709,-0.874182,0.107776,11.417059,-0.196649,-0.057423,-0.019185,0.022333,-0.376667,-0.339000
973930710,-0.752036,-0.014370,11.402688,-0.200247,-0.075142,0.032908,0.021667,-0.376667,-0.339000
973940711,-0.543669,0.399968,11.402688,-0.202378,-0.079273,0.430870,0.024000,-0.377333,-0.338333
973950713,0.217947,-0.332908,11.500884,-0.176531,-0.042234,0.034907,0.023333,-0.373333,-0.342000
973960713,0.203577,-0.033530,11.263778,-0.146954,-0.019185,-0.000133,0.020667,-0.375000,-0.340667
973970714,0.273032,-0.110171,11.340418,-0.155214,-0.000666,-0.006129,0.019333,-0.374000,-0.339000
973980716,0.311353,-0.201182,11.376344,-0.132965,0.024914,-0.005729,0.022333,-0.370000,-0.342667
973990716,-0.182021,-0.112566,11.570340,-0.110182,0.050761,0.007727,0.022333,-0.375667,-0.342000
974000718,-0.462239,-0.019160,11.395503,-0.108583,0.056090,0.009326,0.020333,-0.375000,-0.338333
974010718,-0.962798,-0.009580,11.512859,-0.116977,0.037438,0.006528,0.020667,-0.374000,-0.337333
974020719,-0.895737,-0.069456,11.536810,-0.118576,0.017453,-0.001599,0.020667,-0.376667,-0.340000
974030721,-0.589175,0.026345,11.385923,-0.133498,0.003198,-0.003198,0.024000,-0.378333,-0.336000
974040721,-0.404758,-0.124541,11.529625,-0.142025,-0.012923,-0.006928,0.022333,-0.379000,-0.338333
974050722,-0.270637,-0.153281,11.407478,-0.133764,-0.011325,-0.010925,0.019333,-0.375000,-0.340000
974060723,-0.081431,-0.093406,11.448194,-0.123905,0.007594,-0.015988,0.016000,-0.375667,-0.340667
974070723,0.141306,-0.165256,11.378738,-0.119508,0.024648,-0.012391,0.020667,-0.375667,-0.340000
974080723,0.215552,-0.182021,11.505674,-0.104054,0.048763,-0.012524,0.021667,-0.379000,-0.339000
974090724,-0.045505,-0.170046,11.414663,-0.083936,0.069813,-0.009726,0.016000,-0.375000,-0.344333
974100726,-0.244292,-0.033530,11.354788,-0.082470,0.082470,-0.010525,0.020667,-0.374000,-0.343667
974110727,-0.364043,-0.170046,11.452984,-0.071145,0.087133,-0.010525,0.020667,-0.373333,-0.336000
974120727,-0.450264,-0.148491,11.493699,-0.078873,0.085002,-0.007594,0.021667,-0.376667,-0.338333
974130729,-0.737666,0.074246,11.445799,-0.107651,0.063685,-0.014123,0.022333,-0.376667,-0.339000
974140729,-0.752036,0.040715,11.452984,-0.113380,0.050628,-0.013057,0.020667,-0.373333,-0.339000
974150729,-0.555645,-0.088616,11.498489,-0.124038,0.035573,-0.012524,0.019333,-0.375000,-0.342000
974160730,-0.450264,0.000000,11.455379,-0.122173,0.031842,-0.014256,0.019333,-0.379000,-0.340000
974170732,-0.227527,-0.011975,11.455379,-0.119908,0.037038,-0.012657,0.020667,-0.377333,-0.338333
974180732,-0.182021,-0.170046,11.381133,-0.109250,0.043833,-0.012790,0.022333,-0.375000,-0.336000
974190732,-0.198787,-0.134121,11.385923,-0.097792,0.051827,-0.009726,0.022333,-0.375667,-0.340000
974200732,-0.364043,-0.074246,11.345208,-0.075142,0.055691,-0.008660,0.020333,-0.375000,-0.333667
974210732,-0.292192,0.047900,11.508069,-0.081271,0.046231,-0.007861,0.020333,-0.374000,-0.340000
974220734,-0.352068,-0.141306,11.563155,-0.092729,0.055025,-0.010658,0.018667,-0.375667,-0.338333
974230735,-0.390388,-0.110171,11.443404,-0.082470,0.049962,-0.011058,0.023333,-0.375000,-0.340667
974240736,-0.464634,-0.167651,11.419454,-0.069147,0.055424,-0.011325,0.020667,-0.373333,-0.337333
974250736,-0.589175,-0.160466,11.383529,-0.074210,0.039570,-0.010525,0.020333,-0.379000,-0.336000
974260738,-0.581990,-0.002395,11.520044,-0.083669,0.032775,-0.012524,0.020667,-0.379000,-0.342667
974270738,-0.399968,-0.031135,11.462564,-0.085268,0.031309,-0.013456,0.019333,-0.376667,-0.337333
974280738,-0.220342,-0.148491,11.373948,-0.080738,0.035440,-0.012790,0.018667,-0.375667,-0.342667
974290738,-0.071851,-0.124541,11.359578,-0.076208,0.039170,-0.014123,0.019333,-0.371667,-0.342667
974300738,-0.220342,-0.079036,11.388318,-0.083003,0.053292,-0.017853,0.021667,-0.376667,-0.339000
974310738,-0.395178,-0.047900,11.472144,-0.086734,0.055025,-0.015855,0.025667,-0.377333,-0.338333
974320739,-0.395178,-0.026345,11.345208,-0.086600,0.055424,-0.018119,0.021667,-0.375000,-0.338333
974330739,-0.409548,-0.114961,11.419454,-0.078207,0.054891,-0.015455,0.020333,-0.377333,-0.337333
974340740,-0.205972,-0.026345,11.546390,-0.072744,0.062485,-0.016920,0.020333,-0.380000,-0.340000
974350741,-0.268242,0.000000,11.354788,-0.087400,0.062352,-0.014389,0.019333,-0.372333,-0.337333
974360741,-0.414338,-0.114961,11.371553,-0.102322,0.053825,-0.018253,0.018667,-0.372333,-0.340000
974370742,-0.440684,-0.100591,11.462564,-0.100057,0.052893,-0.015588,0.021667,-0.375000,-0.340667
974380743,-0.337698,-0.093406,11.338023,-0.100057,0.046764,-0.020651,0.020667,-0.379000,-0.343667
974390744,-0.526904,-0.031135,11.357183,-0.106718,0.040636,-0.019319,0.017000,-0.372333,-0.336000
974400744,-0.462239,0.028740,11.357183,-0.115911,0.034374,-0.019718,0.022333,-0.379000,-0.336000
974410746,-0.378413,-0.004790,11.515254,-0.116844,0.037305,-0.021184,0.022333,-0.374000,-0.335333
974420747,-0.191602,-0.083826,11.335628,-0.107251,0.043966,-0.019319,0.021667,-0.375000,-0.339000
974430748,-0.182021,-0.148491,11.505674,-0.097259,0.057156,-0.018652,0.020333,-0.373333,-0.340667
974440749,-0.335303,-0.129331,11.373948,-0.087266,0.059554,-0.014922,0.024000,-0.375000,-0.342000
974450749,-0.431104,-0.191602,11.349998,-0.072078,0.060487,-0.015188,0.020333,-0.380000,-0.340667
974460750,-0.500559,-0.055085,11.383529,-0.073277,0.050495,-0.016521,0.020333,-0.378333,-0.345333
974470750,-0.579595,0.047900,11.460169,-0.096726,0.036639,-0.020917,0.020333,-0.376667,-0.338333
974480752,-0.443079,-0.055085,11.421848,-0.099124,0.031443,-0.020251,0.019333,-0.375000,-0.343667
974491585,-0.232317,-0.107776,11.357183,-0.093662,0.039303,-0.018652,0.022333,-0.374000,-0.340667
974501586,-0.263452,-0.129331,11.354788,-0.092729,0.042767,-0.020917,0.021667,-0.378333,-0.340000
974511587,-0.368833,-0.069456,11.412269,-0.089798,0.047297,-0.020251,0.021667,-0.379000,-0.342000
974521589,-0.402363,0.033530,11.474539,-0.083403,0.051427,-0.019851,0.020333,-0.375667,-0.338333
974531590,-0.443079,0.004790,11.311678,-0.093395,0.048363,-0.020651,0.024000,-0.373333,-0.342000
974541591,-0.514929,-0.059875,11.579920,-0.090597,0.042900,-0.019985,0.024000,-0.376667,-0.342667
974551593,-0.395178,-0.148491,11.366763,-0.080472,0.045965,-0.025314,0.022333,-0.380000,-0.338333
974561594,-0.294587,-0.016765,11.395503,-0.087133,0.044366,-0.022516,0.022333,-0.375000,-0.340667
974571596,-0.294587,-0.052690,11.529625,-0.090730,0.040769,-0.020784,0.024000,-0.376667,-0.340667
974581597,-0.385598,-0.179626,11.373948,-0.090730,0.050495,-0.025714,0.023333,-0.374000,-0.340000
974591597,-0.414338,-0.079036,11.397899,-0.077274,0.050228,-0.021850,0.025000,-0.375667,-0.340000
974601599,-0.500559,-0.086221,11.407478,-0.073544,0.053292,-0.024381,0.022333,-0.382333,-0.337333
974611601,-0.476609,0.026345,11.359578,-0.076874,0.051427,-0.023982,0.022333,-0.381667,-0.344333
974621601,-0.481399,0.064666,11.400293,-0.083536,0.048096,-0.025047,0.021667,-0.377333,-0.342000
974631601,-0.344883,-0.045505,11.340418,-0.081271,0.046631,-0.024381,0.023333,-0.376667,-0.339000
974641603,-0.385598,-0.045505,11.383529,-0.084469,0.043034,-0.027979,0.020667,-0.375000,-0.344333
974651605,-0.387993,-0.059875,11.395503,-0.083936,0.052360,-0.024381,0.028333,-0.377333,-0.335333
974661606,-0.392783,-0.081431,11.330838,-0.077008,0.055291,-0.025580,0.023333,-0.377333,-0.342667
974671608,-0.421523,-0.019160,11.340418,-0.074876,0.051960,-0.025580,0.020667,-0.376667,-0.340000
974681610,-0.344883,0.067061,11.340418,-0.085668,0.047430,-0.030243,0.021667,-0.376667,-0.336000
974691611,-0.299377,0.059875,11.275752,-0.097525,0.046631,-0.028112,0.021667,-0.375000,-0.339000
974701612,-0.344883,0.093406,11.393108,-0.106985,0.044899,-0.029444,0.024000,-0.375667,-0.342667
974711613,-0.433499,-0.028740,11.452984,-0.113113,0.043833,-0.033441,0.023333,-0.375000,-0.342000
974721613,-0.486189,0.047900,11.500884,-0.114046,0.046498,-0.030243,0.020333,-0.376667,-0.340000
974731613,-0.457449,-0.059875,11.268567,-0.112447,0.042368,-0.029044,0.026667,-0.377333,-0.337333
974741614,-0.344883,-0.057480,11.536810,-0.110049,0.047830,-0.033574,0.025667,-0.372333,-0.338333
974751614,-0.308958,-0.074246,11.424244,-0.104054,0.046498,-0.031709,0.022333,-0.380000,-0.340000
974761614,-0.399968,-0.057480,11.405084,-0.102721,0.048896,-0.030643,0.019333,-0.375000,-0.342000
974771615,-0.550855,0.040715,11.441009,-0.100057,0.048230,-0.029044,0.020333,-0.375000,-0.338333
974781617,-0.651445,0.019160,11.266172,-0.101256,0.043966,-0.028378,0.021667,-0.374000,-0.342000
974791618,-0.622705,-0.011975,11.405084,-0.106052,0.036505,-0.029977,0.025000,-0.378333,-0.347333
974801619,-0.493374,0.069456,11.366763,-0.107518,0.038637,-0.029711,0.025000,-0.376667,-0.339000
974811621,-0.349673,-0.076641,11.359578,-0.111115,0.031576,-0.032375,0.020667,-0.379000,-0.340000
974821622,-0.316143,-0.031135,11.445799,-0.113913,0.032242,-0.029844,0.021667,-0.376667,-0.339000
974831622,-0.296982,-0.119751,11.349998,-0.110715,0.038770,-0.031842,0.020667,-0.373333,-0.340667
974841623,-0.349673,-0.045505,11.383529,-0.110982,0.040502,-0.030110,0.017000,-0.375667,-0.342000
974851623,-0.471819,-0.062271,11.311678,-0.114446,0.037172,-0.032642,0.020333,-0.380667,-0.338333
974861625,-0.385598,-0.023950,11.388318,-0.113646,0.040103,-0.029044,0.017667,-0.375667,-0.339000
974871627,-0.328118,0.067061,11.421848,-0.114979,0.037438,-0.029444,0.021667,-0.375667,-0.339000
974881628,-0.364043,0.000000,11.390714,-0.122173,0.036505,-0.029844,0.025000,-0.375667,-0.338333
974891630,-0.361648,-0.098196,11.354788,-0.115645,0.041701,-0.032508,0.025667,-0.377333,-0.338333
974901631,-0.534089,-0.179626,11.405084,-0.100190,0.043300,-0.026646,0.023333,-0.371667,-0.338333
974911632,-0.481399,-0.229922,11.366763,-0.079139,0.045432,-0.028511,0.025000,-0.374000,-0.339000
974921633,-0.498164,-0.174836,11.395503,-0.052493,0.059821,-0.025714,0.025000,-0.375000,-0.338333
974931635,-0.366438,-0.134121,11.342813,-0.027579,0.070879,-0.023449,0.021667,-0.380667,-0.340667
974941635,-0.347278,-0.074246,11.424244,-0.019052,0.078873,-0.026247,0.024000,-0.379000,-0.342000
974951635,-0.474214,-0.040715,11.424244,0.005063,0.093928,-0.024781,0.025667,-0.377333,-0.339000
974961636,-0.397573,-0.095801,11.424244,0.039170,0.122040,-0.014655,0.025000,-0.375667,-0.337333
974971636,-0.433499,-0.047900,11.441009,-0.004130,0.091530,-0.021983,0.025667,-0.378333,-0.340667
974981636,-0.524509,-0.014370,11.407478,-0.041435,0.072611,-0.029711,0.024000,-0.378333,-0.339000
974991637,-0.483794,0.038320,11.431429,-0.048496,0.063551,-0.027712,0.025000,-0.379000,-0.340667
975001639,-0.579595,0.076641,11.400293,-0.047830,0.061553,-0.025580,0.022333,-0.375667,-0.339000
975011640,-0.579595,0.155676,11.472144,-0.059954,0.057556,-0.026113,0.020667,-0.376667,-0.336000
975021640,-0.632285,0.110171,11.335628,-0.049429,0.059155,-0.029311,0.020333,-0.374000,-0.338333
975031640,-0.510139,0.028740,11.338023,-0.054225,0.056357,-0.027312,0.020333,-0.374000,-0.340000
975041642,-0.414338,0.045505,11.314073,-0.053559,0.054492,-0.026913,0.020333,-0.375000,-0.337333
975051644,-0.249082,-0.064666,11.369158,-0.057423,0.056623,-0.027712,0.025667,-0.379000,-0.339000
975061645,-0.162861,0.043110,11.383529,-0.055957,0.055291,-0.028511,0.028333,-0.381667,-0.340000
975071645,-0.239502,0.069456,11.393108,-0.071412,0.052093,-0.029711,0.026667,-0.379000,-0.338333
975081646,-0.337698,0.083826,11.414663,-0.093528,0.042501,-0.030110,0.021667,-0.375000,-0.337333
975091648,-0.387993,0.019160,11.476934,-0.088732,0.044766,-0.029977,0.020667,-0.375667,-0.339000
975101649,-0.426313,0.055085,11.338023,-0.090864,0.049828,-0.033308,0.022333,-0.375667,-0.336000
975111650,-0.399968,0.071851,11.409874,-0.083003,0.056090,-0.029844,0.023333,-0.375000,-0.338333
975121650,-0.431104,0.057480,11.397899,-0.075809,0.065417,-0.030643,0.022333,-0.370667,-0.340000
975131651,-0.455054,0.162861,11.342813,-0.079006,0.066349,-0.031309,0.019333,-0.378333,-0.342667
975141652,-0.656235,0.141306,11.306888,-0.086734,0.061020,-0.035706,0.021667,-0.377333,-0.342000
975151654,-0.706531,0.141306,11.433824,-0.100323,0.047164,-0.030776,0.019333,-0.373333,-0.340000
975161655,-0.670605,0.273032,11.345208,-0.123239,0.031842,-0.034507,0.020333,-0.375667,-0.342667
975171657,-0.742456,0.335303,11.390714,-0.142557,0.013856,-0.034907,0.020333,-0.374000,-0.338333
975181659,-0.601150,0.186812,11.354788,-0.167472,-0.005462,-0.036505,0.024000,-0.374000,-0.337333
975191661,-0.459844,0.182021,11.364368,-0.197449,-0.021051,-0.039836,0.020333,-0.377333,-0.340000
975201663,-0.481399,0.134121,11.536810,-0.251407,-0.056623,-0.046098,0.020667,-0.375000,-0.342000
975211663,-0.526904,0.122146,11.402688,-0.283116,-0.074876,-0.045832,0.022333,-0.375667,-0.335333
975221664,-0.586780,0.055085,11.431429,-0.240349,-0.046764,-0.043567,0.020667,-0.373333,-0.340667
975231666,-0.699346,-0.028740,11.417059,-0.231956,-0.042900,-0.037172,0.021667,-0.380000,-0.340000
975241667,-0.634680,0.110171,11.373948,-0.241815,-0.052360,-0.035839,0.024000,-0.378333,-0.342667
975251669,-0.646655,-0.002395,11.405084,-0.220364,-0.042634,-0.035306,0.019333,-0.376667,-0.338333
975261669,-0.536484,-0.167651,11.529625,-0.193851,-0.029044,-0.029977,0.023333,-0.377333,-0.342000
975271669,-0.443079,-0.126936,11.345208,-0.181861,-0.030377,-0.029178,0.020667,-0.373333,-0.337333
975281670,-0.395178,-0.217947,11.397899,-0.164940,-0.023315,-0.021317,0.023333,-0.376667,-0.342667
975291671,-0.196392,-0.294587,11.414663,-0.144956,-0.017720,-0.022250,0.024000,-0.373333,-0.340667
975301671,-0.198787,-0.217947,11.369158,-0.121240,-0.006262,-0.018786,0.021667,-0.378333,-0.340000
975311672,-0.016765,-0.210762,11.256593,-0.106585,0.002531,-0.016254,0.020667,-0.372333,-0.340000
975321672,-0.081431,-0.186812,11.361973,-0.089798,0.007861,-0.015721,0.021667,-0.378333,-0.337333
975331674,-0.098196,-0.153281,11.378738,-0.074476,0.022516,-0.015721,0.017667,-0.377333,-0.337333
975341676,-0.126936,-0.239502,11.484119,-0.064484,0.034107,-0.015588,0.018667,-0.375000,-0.334333
975351676,-0.246687,-0.100591,11.273357,-0.058222,0.035573,-0.016521,0.020333,-0.375000,-0.340667
975361678,-0.347278,-0.071851,11.390714,-0.044899,0.042634,-0.015988,0.020667,-0.375667,-0.338333
975371680,-0.237107,-0.131726,11.462564,-0.036772,0.044899,-0.015322,0.018667,-0.372333,-0.339000
975381680,-0.289797,-0.062271,11.493699,-0.034507,0.049562,-0.017986,0.022333,-0.374000,-0.342000
975391681,-0.285007,-0.057480,11.373948,-0.036772,0.053159,-0.018919,0.017000,-0.377333,-0.345333
975401681,-0.330513,-0.011975,11.316468,-0.056490,0.052626,-0.019985,0.020667,-0.379000,-0.340667
975411682,-0.280217,0.136516,11.371553,-0.068481,0.054758,-0.025314,0.022333,-0.375667,-0.339000
975421683,-0.376018,0.093406,11.450589,-0.078740,0.057289,-0.020384,0.017000,-0.377333,-0.340000
975431683,-0.407153,0.107776,11.402688,-0.088732,0.051028,-0.021450,0.020667,-0.374000,-0.339000
975441683,-0.399968,0.076641,11.405084,-0.096459,0.045832,-0.024248,0.021667,-0.374000,-0.340667
975451685,-0.474214,0.052690,11.464959,-0.107917,0.048363,-0.026113,0.019333,-0.375667,-0.342000
975461685,-0.469424,0.067061,11.306888,-0.113779,0.042634,-0.024914,0.018667,-0.377333,-0.340000
975471687,-0.457449,-0.033530,11.529625,-0.116044,0.039836,-0.026913,0.019333,-0.378333,-0.339000
975481688,-0.380808,-0.047900,11.431429,-0.117243,0.042767,-0.026646,0.023333,-0.375667,-0.340000
975491688,-0.462239,-0.071851,11.433824,-0.113380,0.041701,-0.025580,0.025000,-0.379000,-0.344333
975501690,-0.404758,-0.028740,11.412269,-0.113646,0.039969,-0.025980,0.020667,-0.377333,-0.342000
975511692,-0.332908,-0.047900,11.441009,-0.105919,0.042368,-0.027446,0.021667,-0.370667,-0.340667
975521692,-0.296982,-0.040715,11.522439,-0.104720,0.041302,-0.024115,0.019333,-0.375667,-0.340000
975531694,-0.440684,-0.047900,11.349998,-0.104187,0.041701,-0.023182,0.023333,-0.375000,-0.340000
975541694,-0.378413,0.007185,11.385923,-0.107118,0.042368,-0.025314,0.020667,-0.376667,-0.340000
975551694,-0.352068,0.021555,11.462564,-0.110715,0.043034,-0.027179,0.022333,-0.375667,-0.340000
975561694,-0.328118,-0.019160,11.445799,-0.111381,0.041701,-0.024248,0.021667,-0.376667,-0.342000
975571695,-0.426313,-0.141306,11.397899,-0.104720,0.044766,-0.024648,0.024000,-0.376667,-0.347333
975581695,-0.373623,-0.148491,11.424244,-0.093262,0.051827,-0.021051,0.022333,-0.375667,-0.344333
975591695,-0.390388,-0.040715,11.376344,-0.089265,0.046498,-0.023715,0.024000,-0.373333,-0.340000
975601695,-0.445474,-0.076641,11.433824,-0.086067,0.045032,-0.026113,0.022333,-0.375000,-0.340000
975611695,-0.399968,-0.057480,11.330838,-0.084069,0.043433,-0.023715,0.023333,-0.380000,-0.342000
975621695,-0.385598,-0.031135,11.457774,-0.084202,0.037438,-0.020917,0.023333,-0.378333,-0.342000
975631697,-0.328118,-0.021555,11.393108,-0.082470,0.047031,-0.025714,0.025000,-0.376667,-0.338333
975641699,-0.275427,0.009580,11.412269,-0.084735,0.050361,-0.023182,0.023333,-0.372333,-0.342000
975651700,-0.280217,0.067061,11.419454,-0.090064,0.049695,-0.022383,0.019333,-0.376667,-0.343667
975661701,-0.366438,-0.007185,11.359578,-0.101789,0.049296,-0.024115,0.026667,-0.382333,-0.344333
975671702,-0.423918,-0.057480,11.419454,-0.104720,0.048230,-0.025047,0.023333,-0.377333,-0.342667
975681703,-0.404758,-0.050295,11.405084,-0.102721,0.044499,-0.027446,0.020333,-0.378333,-0.339000
975691705,-0.483794,-0.069456,11.426639,-0.102322,0.044499,-0.026380,0.017667,-0.376667,-0.342000
975701707,-0.435894,-0.071851,11.302097,-0.097126,0.047297,-0.025980,0.020667,-0.377333,-0.340667
975711707,-0.443079,-0.047900,11.395503,-0.090464,0.043300,-0.026380,0.025000,-0.378333,-0.339000
975721709,-0.462239,-0.057480,11.383529,-0.091530,0.047031,-0.023582,0.021667,-0.377333,-0.335333
975731710,-0.457449,-0.023950,11.338023,-0.089665,0.045032,-0.026646,0.023333,-0.375000,-0.340000
975741712,-0.495769,0.043110,11.395503,-0.097392,0.042767,-0.025714,0.023333,-0.375667,-0.339000
975751713,-0.443079,0.050295,11.282937,-0.104453,0.031842,-0.027712,0.021667,-0.375000,-0.340667
975761713,-0.368833,-0.033530,11.450589,-0.106319,0.032908,-0.027845,0.017000,-0.372333,-0.337333
975771714,-0.296982,0.000000,11.424244,-0.101655,0.034374,-0.023848,0.021667,-0.375000,-0.342000
975781716,-0.349673,-0.028740,11.381133,-0.100323,0.038637,-0.026779,0.020333,-0.375000,-0.340667
975791718,-0.306563,0.000000,11.364368,-0.103521,0.039170,-0.026380,0.020667,-0.379000,-0.340667
975801718,-0.399968,0.011975,11.419454,-0.104320,0.039170,-0.027046,0.022333,-0.378333,-0.340000
975811718,-0.435894,-0.028740,11.436219,-0.103121,0.037571,-0.022783,0.026667,-0.376667,-0.348333
975821718,-0.433499,0.074246,11.409874,-0.106585,0.036106,-0.028245,0.024000,-0.376667,-0.340000
975831719,-0.419128,-0.004790,11.452984,-0.108583,0.028778,-0.025847,0.020667,-0.374000,-0.339000
975841719,-0.347278,-0.057480,11.397899,-0.108717,0.034107,-0.029444,0.023333,-0.377333,-0.337333
975851721,-0.352068,-0.014370,11.400293,-0.100590,0.039703,-0.026779,0.024000,-0.375667,-0.340667
975861723,-0.340093,-0.028740,11.349998,-0.102188,0.040369,-0.028245,0.019333,-0.376667,-0.342000
975871724,-0.342488,-0.071851,11.273357,-0.098991,0.039836,-0.028645,0.021667,-0.375000,-0.338333
975881724,-0.323328,-0.021555,11.352393,-0.100723,0.042368,-0.024115,0.023333,-0.379000,-0.340667
975891726,-0.289797,-0.033530,11.361973,-0.097126,0.040902,-0.026913,0.020667,-0.380000,-0.340667
975901727,-0.392783,0.064666,11.347603,-0.098591,0.042767,-0.025580,0.021667,-0.375000,-0.340667
975911729,-0.457449,0.004790,11.409874,-0.099124,0.050761,-0.025580,0.023333,-0.377333,-0.340000
975921730,-0.464634,-0.019160,11.443404,-0.096459,0.048363,-0.027446,0.019333,-0.381667,-0.340667
975931731,-0.416733,-0.045505,11.436219,-0.094861,0.043433,-0.023715,0.022333,-0.380667,-0.346667
975941733,-0.447869,-0.052690,11.381133,-0.092729,0.041435,-0.024381,0.020333,-0.375667,-0.340000
975951734,-0.299377,-0.021555,11.469749,-0.093528,0.039836,-0.027046,0.021667,-0.377333,-0.339000
975961735,-0.299377,-0.062271,11.359578,-0.096593,0.043300,-0.026247,0.025667,-0.375667,-0.335333
975971736,-0.364043,-0.043110,11.407478,-0.099923,0.044899,-0.029844,0.024000,-0.375667,-0.334333
975981736,-0.383203,0.033530,11.311678,-0.104054,0.046364,-0.025047,0.023333,-0.379000,-0.338333
975991736,-0.416733,-0.016765,11.349998,-0.098858,0.048496,-0.027446,0.024000,-0.373333,-0.339000
976001738,-0.426313,-0.052690,11.323653,-0.098458,0.052626,-0.024781,0.022333,-0.377333,-0.340000
976011740,-0.522114,-0.043110,11.426639,-0.100989,0.046098,-0.029844,0.020333,-0.374000,-0.342667
976021741,-0.426313,-0.021555,11.373948,-0.102322,0.045299,-0.026646,0.020333,-0.373333,-0.342000
976031742,-0.471819,-0.045505,11.340418,-0.103787,0.048363,-0.028378,0.026667,-0.373333,-0.338333
976041743,-0.385598,0.004790,11.314073,-0.106319,0.044899,-0.027979,0.024000,-0.377333,-0.334333
976051745,-0.385598,-0.040715,11.409874,-0.106452,0.043034,-0.026913,0.022333,-0.375667,-0.340000
976061747,-0.364043,-0.098196,11.385923,-0.104453,0.043300,-0.027046,0.020667,-0.375667,-0.335333
976071747,-0.435894,-0.071851,11.397899,-0.099923,0.041435,-0.022383,0.021667,-0.375667,-0.340667
976081747,-0.481399,0.009580,11.381133,-0.098325,0.039037,-0.027712,0.022333,-0.380000,-0.342667
976091748,-0.546064,-0.047900,11.361973,-0.099923,0.033441,-0.025447,0.020333,-0.373333,-0.340000
976101748,-0.435894,0.050295,11.280542,-0.099124,0.031309,-0.027579,0.020667,-0.375667,-0.340000
976111748,-0.335303,0.009580,11.472144,-0.101522,0.033441,-0.029178,0.019333,-0.373333,-0.337333
976121748,-0.354463,-0.057480,11.407478,-0.100456,0.033974,-0.029711,0.023333,-0.375000,-0.337333
976131750,-0.299377,-0.007185,11.390714,-0.102455,0.038237,-0.023582,0.023333,-0.378333,-0.340000
976141751,-0.416733,0.019160,11.421848,-0.107384,0.032242,-0.025447,0.020667,-0.377333,-0.335333
976151752,-0.455054,0.014370,11.397899,-0.105919,0.031176,-0.029311,0.020667,-0.377333,-0.339000
976161754,-0.328118,-0.011975,11.349998,-0.109116,0.031576,-0.027446,0.020667,-0.374000,-0.340667
976171755,-0.261057,-0.026345,11.383529,-0.107384,0.037172,-0.028378,0.020667,-0.374000,-0.339000
976181755,-0.330513,-0.095801,11.371553,-0.098058,0.045832,-0.029844,0.024000,-0.377333,-0.340667
976191756,-0.383203,-0.023950,11.299703,-0.099923,0.047164,-0.028645,0.025667,-0.376667,-0.340000
976201756,-0.419128,-0.035925,11.421848,-0.100323,0.044766,-0.026646,0.020333,-0.380000,-0.340000
976211757,-0.476609,-0.079036,11.330838,-0.097925,0.044632,-0.028645,0.022333,-0.379000,-0.347333
976221757,-0.457449,0.000000,11.335628,-0.100723,0.042634,-0.024115,0.027333,-0.372333,-0.335333
976231759,-0.373623,-0.002395,11.316468,-0.108583,0.037172,-0.031176,0.020667,-0.380000,-0.343667
976241761,-0.404758,-0.007185,11.464959,-0.108450,0.036239,-0.028645,0.020333,-0.380000,-0.348333
976251761,-0.387993,0.040715,11.383529,-0.110715,0.039703,-0.023848,0.020333,-0.380667,-0.342667
976261763,-0.416733,-0.033530,11.491304,-0.105652,0.044366,-0.027312,0.022333,-0.374000,-0.344333
976271764,-0.433499,-0.040715,11.397899,-0.111648,0.037704,-0.028511,0.021667,-0.372333,-0.340667
976281765,-0.397573,-0.098196,11.378738,-0.108983,0.037305,-0.028511,0.023333,-0.375667,-0.342000
976291766,-0.416733,0.043110,11.395503,-0.109649,0.028245,-0.024248,0.022333,-0.375000,-0.336000
976301768,-0.366438,-0.009580,11.359578,-0.105386,0.029711,-0.026247,0.018667,-0.375000,-0.342667
976311768,-0.359253,-0.004790,11.436219,-0.107384,0.041302,-0.025181,0.022333,-0.374000,-0.342667
976321770,-0.299377,0.019160,11.371553,-0.103920,0.042101,-0.024914,0.020333,-0.376667,-0.340667
976331770,-0.376018,-0.079036,11.345208,-0.104720,0.045299,-0.027845,0.021667,-0.374000,-0.339000
976341771,-0.452659,-0.021555,11.349998,-0.106452,0.045432,-0.024648,0.023333,-0.376667,-0.340667
976351772,-0.371228,-0.004790,11.412269,-0.103121,0.046764,-0.027979,0.020667,-0.376667,-0.339000
976361774,-0.421523,0.059875,11.263778,-0.106718,0.046498,-0.027579,0.019333,-0.373333,-0.339000
976371776,-0.447869,0.038320,11.467354,-0.108051,0.045698,-0.027179,0.019333,-0.378333,-0.342667
976381777,-0.500559,-0.028740,11.405084,-0.108317,0.045565,-0.030377,0.022333,-0.372333,-0.339000
976391778,-0.387993,-0.047900,11.419454,-0.108317,0.038770,-0.027179,0.024000,-0.371667,-0.343667
976401780,-0.462239,-0.021555,11.323653,-0.107118,0.040902,-0.025447,0.022333,-0.373333,-0.343667
976411782,-0.493374,-0.002395,11.393108,-0.108051,0.042900,-0.023582,0.020667,-0.379000,-0.342000
976421783,-0.469424,0.028740,11.349998,-0.110848,0.036905,-0.027446,0.023333,-0.375000,-0.343667
976431784,-0.316143,-0.105381,11.338023,-0.113779,0.035839,-0.029711,0.020333,-0.379000,-0.340667
976441784,-0.373623,-0.064666,11.302097,-0.117110,0.035839,-0.027179,0.020667,-0.378333,-0.346667
976451786,-0.342488,-0.086221,11.359578,-0.112847,0.032508,-0.025181,0.024000,-0.375667,-0.343667
976461787,-0.361648,-0.143701,11.285333,-0.105253,0.037838,-0.026247,0.025667,-0.375667,-0.335333
976471787,-0.428709,-0.057480,11.306888,-0.097659,0.040636,-0.027312,0.019333,-0.375667,-0.336000
976481788,-0.402363,-0.189207,11.359578,-0.086067,0.039037,-0.027845,0.021667,-0.376667,-0.339000
976492585,-0.364043,-0.126936,11.349998,-0.075942,0.040103,-0.024115,0.020667,-0.378333,-0.339000
976502587,-0.249082,-0.143701,11.249407,-0.073677,0.040902,-0.023982,0.022333,-0.375667,-0.337333
976512587,-0.352068,-0.052690,11.342813,-0.069813,0.046098,-0.024115,0.025667,-0.375667,-0.342667
976522587,-0.335303,-0.021555,11.263778,-0.068881,0.048230,-0.024248,0.023333,-0.375667,-0.346667
976532588,-0.397573,-0.007185,11.395503,-0.070479,0.048096,-0.026913,0.023333,-0.378333,-0.342000
976542590,-0.330513,-0.057480,11.390714,-0.064750,0.055557,-0.029844,0.021667,-0.377333,-0.340667
976552590,-0.404758,0.038320,11.316468,-0.057822,0.063018,-0.023982,0.023333,-0.377333,-0.340667
976562591,-0.459844,0.016765,11.443404,-0.061420,0.063551,-0.026913,0.025000,-0.375000,-0.344333
976572591,-0.455054,0.105381,11.400293,-0.057689,0.071945,-0.026646,0.023333,-0.375000,-0.342667
976582592,-0.464634,0.057480,11.407478,-0.063551,0.067149,-0.028778,0.027333,-0.371667,-0.340667
976592592,-0.546064,0.114961,11.369158,-0.070746,0.061953,-0.029044,0.020667,-0.375000,-0.343667
976602592,-0.481399,0.160466,11.345208,-0.082603,0.055158,-0.026513,0.025667,-0.376667,-0.342000
976612594,-0.476609,0.067061,11.393108,-0.093129,0.053426,-0.031975,0.023333,-0.374000,-0.342667
976622596,-0.481399,0.026345,11.460169,-0.106851,0.046364,-0.031975,0.023333,-0.371667,-0.343667
976632598,-0.474214,0.126936,11.340418,-0.118576,0.041168,-0.033041,0.022333,-0.377333,-0.342667
976642598,-0.541274,0.076641,11.292518,-0.128302,0.028911,-0.034907,0.023333,-0.377333,-0.342000
976652599,-0.505349,0.057480,11.402688,-0.129501,0.020384,-0.032242,0.026667,-0.378333,-0.342667
976662601,-0.385598,0.009580,11.321258,-0.130833,0.025181,-0.034240,0.023333,-0.373333,-0.339000
976672601,-0.356858,-0.062271,11.333233,-0.133364,0.027446,-0.030910,0.019333,-0.376667,-0.342000
976682602,-0.239502,-0.081431,11.328443,-0.128968,0.028911,-0.029178,0.022333,-0.379000,-0.342000
976692602,-0.280217,-0.095801,11.342813,-0.120974,0.031975,-0.029711,0.021667,-0.379000,-0.342000
976702602,-0.395178,-0.093406,11.314073,-0.117110,0.041168,-0.027446,0.021667,-0.374000,-0.342667
976712602,-0.615520,-0.009580,11.476934,-0.114179,0.042101,-0.033308,0.023333,-0.377333,-0.344333
976722604,-0.598755,-0.045505,11.445799,-0.112314,0.033841,-0.031975,0.025667,-0.373333,-0.344333
976732605,-0.538879,-0.071851,11.338023,-0.112047,0.026380,-0.028378,0.020333,-0.373333,-0.340000
976742606,-0.505349,0.074246,11.429033,-0.108717,0.020118,-0.029044,0.021667,-0.375667,-0.339000
976752607,-0.416733,0.031135,11.383529,-0.114979,0.016654,-0.029311,0.019333,-0.374000,-0.340000
976762609,-0.459844,-0.031135,11.400293,-0.116844,0.021850,-0.030643,0.020667,-0.378333,-0.337333
976772609,-0.352068,0.021555,11.294912,-0.113913,0.020118,-0.031176,0.019333,-0.374000,-0.337333
976782610,-0.380808,-0.074246,11.436219,-0.107518,0.023182,-0.026513,0.021667,-0.377333,-0.337333
976792612,-0.397573,-0.045505,11.376344,-0.113513,0.022250,-0.030243,0.021667,-0.375667,-0.340667
976802612,-0.376018,-0.035925,11.361973,-0.113113,0.024115,-0.030377,0.024000,-0.376667,-0.337333
976812612,-0.407153,-0.028740,11.366763,-0.114446,0.022116,-0.026646,0.018667,-0.378333,-0.334333
976822613,-0.419128,-0.064666,11.366763,-0.113779,0.025714,-0.030243,0.020333,-0.375000,-0.331667
976832615,-0.380808,-0.045505,11.306888,-0.112447,0.024248,-0.030377,0.022333,-0.376667,-0.333667
976842617,-0.294587,0.011975,11.314073,-0.109783,0.028378,-0.030243,0.020333,-0.375000,-0.339000
976852617,-0.256267,-0.081431,11.352393,-0.106585,0.033841,-0.027179,0.019333,-0.374000,-0.342667
976862617,-0.328118,-0.059875,11.381133,-0.100989,0.044366,-0.029977,0.019333,-0.376667,-0.339000
976872619,-0.421523,-0.043110,11.357183,-0.099923,0.044100,-0.026646,0.022333,-0.378333,-0.340000
976882619,-0.421523,-0.076641,11.342813,-0.094328,0.047297,-0.028645,0.021667,-0.378333,-0.337333
976892619,-0.407153,-0.019160,11.426639,-0.091263,0.045432,-0.028245,0.023333,-0.376667,-0.338333
976902620,-0.462239,-0.004790,11.340418,-0.088865,0.043167,-0.028778,0.025667,-0.375000,-0.337333
976912621,-0.419128,0.004790,11.366763,-0.089798,0.044100,-0.029178,0.020333,-0.375667,-0.338333
976922622,-0.282612,-0.028740,11.330838,-0.089531,0.046098,-0.030243,0.022333,-0.380000,-0.335333
976932623,-0.366438,-0.074246,11.373948,-0.087933,0.044899,-0.030243,0.019333,-0.376667,-0.338333
976942625,-0.306563,-0.102986,11.493699,-0.088066,0.044766,-0.028778,0.021667,-0.374000,-0.337333
976952627,-0.416733,-0.004790,11.340418,-0.084335,0.056224,-0.030377,0.020667,-0.376667,-0.340667
976962629,-0.366438,-0.014370,11.388318,-0.086867,0.052893,-0.028378,0.022333,-0.375667,-0.338333
976972630,-0.395178,-0.021555,11.369158,-0.094328,0.054891,-0.030910,0.020333,-0.377333,-0.339000
976982631,-0.452659,0.052690,11.342813,-0.090331,0.051028,-0.027312,0.023333,-0.378333,-0.342000
976992633,-0.488584,0.062271,11.326048,-0.093928,0.050495,-0.031709,0.019333,-0.375667,-0.339000
977002633,-0.534089,0.004790,11.388318,-0.099257,0.048763,-0.033041,0.020333,-0.374000,-0.337333
977012633,-0.455054,0.011975,11.361973,-0.094594,0.044766,-0.030910,0.025000,-0.372333,-0.340000
977022634,-0.390388,0.028740,11.316468,-0.097925,0.042101,-0.032642,0.022333,-0.374000,-0.339000
977032635,-0.347278,-0.035925,11.409874,-0.098858,0.042501,-0.029844,0.021667,-0.378333,-0.345333
977042636,-0.428709,0.021555,11.335628,-0.103254,0.042501,-0.028245,0.024000,-0.373333,-0.342000
977052637,-0.399968,0.055085,11.328443,-0.107651,0.038237,-0.032508,0.020333,-0.377333,-0.347333
977062638,-0.514929,-0.035925,11.388318,-0.105786,0.040502,-0.030910,0.020333,-0.376667,-0.340000
977072638,-0.450264,-0.021555,11.405084,-0.107518,0.034907,-0.033974,0.019333,-0.379000,-0.342667
977082640,-0.572410,-0.021555,11.402688,-0.112580,0.036639,-0.030643,0.020667,-0.376667,-0.342000
977092640,-0.479004,0.009580,11.354788,-0.111115,0.034773,-0.031443,0.023333,-0.373333,-0.337333
977102640,-0.483794,-0.062271,11.323653,-0.103920,0.031176,-0.029844,0.026667,-0.377333,-0.342667
977112642,-0.419128,-0.033530,11.441009,-0.097792,0.030643,-0.029444,0.021667,-0.377333,-0.342000
977122642,-0.361648,-0.007185,11.349998,-0.096193,0.028911,-0.029444,0.027333,-0.379000,-0.340000
977132643,-0.359253,-0.062271,11.378738,-0.097792,0.030110,-0.029178,0.023333,-0.377333,-0.342000
977142644,-0.313748,-0.014370,11.268567,-0.099524,0.036106,-0.031443,0.025667,-0.380000,-0.340667
977152646,-0.320933,-0.016765,11.385923,-0.094461,0.046098,-0.028911,0.023333,-0.381667,-0.340667
977162647,-0.373623,0.016765,11.369158,-0.092995,0.045165,-0.028778,0.022333,-0.375667,-0.340000
977172647,-0.404758,-0.028740,11.500884,-0.098058,0.044233,-0.032242,0.025000,-0.377333,-0.340667
977182648,-0.428709,-0.059875,11.335628,-0.098858,0.046364,-0.028778,0.022333,-0.377333,-0.340667
977192650,-0.455054,-0.016765,11.397899,-0.094328,0.039303,-0.032375,0.021667,-0.378333,-0.344333
977202651,-0.457449,0.026345,11.275752,-0.095394,0.038637,-0.031043,0.021667,-0.376667,-0.342000
977212653,-0.450264,0.112566,11.397899,-0.095926,0.040236,-0.031576,0.024000,-0.379000,-0.340667
977222654,-0.457449,0.112566,11.352393,-0.097659,0.036905,-0.029178,0.027333,-0.375000,-0.339000
977232655,-0.416733,0.079036,11.385923,-0.103787,0.036772,-0.028511,0.021667,-0.379000,-0.339000
977242655,-0.450264,0.035925,11.302097,-0.103387,0.038104,-0.031576,0.026667,-0.372333,-0.338333
977252656,-0.414338,0.059875,11.429033,-0.109250,0.037305,-0.029977,0.025000,-0.377333,-0.342000
977262658,-0.495769,-0.011975,11.290123,-0.108850,0.035706,-0.034773,0.025667,-0.378333,-0.342000
977272658,-0.529299,0.016765,11.287727,-0.111381,0.033708,-0.033841,0.021667,-0.380667,-0.340667
977282659,-0.584385,0.021555,11.445799,-0.108983,0.031576,-0.031709,0.021667,-0.379000,-0.342000
977292659,-0.510139,0.021555,11.421848,-0.106319,0.026247,-0.031043,0.024000,-0.377333,-0.342667
977302660,-0.431104,-0.052690,11.338023,-0.107118,0.026779,-0.031842,0.024000,-0.373333,-0.344333
977312662,-0.323328,-0.038320,11.400293,-0.110582,0.022649,-0.029311,0.019333,-0.375000,-0.340667
977322664,-0.258662,-0.055085,11.436219,-0.111381,0.023449,-0.029178,0.022333,-0.378333,-0.342000
977332666,-0.277822,-0.062271,11.417059,-0.105386,0.034907,-0.028511,0.022333,-0.378333,-0.344333
977342666,-0.225132,-0.055085,11.321258,-0.104587,0.036239,-0.027046,0.022333,-0.375667,-0.340000
977352666,-0.301772,-0.047900,11.268567,-0.104720,0.041968,-0.029444,0.021667,-0.377333,-0.342000
977362668,-0.435894,-0.016765,11.369158,-0.106985,0.042234,-0.030643,0.020333,-0.378333,-0.344333
977372668,-0.407153,-0.038320,11.345208,-0.101789,0.047031,-0.029844,0.026667,-0.377333,-0.336000
977382668,-0.479004,-0.047900,11.316468,-0.098058,0.043567,-0.030377,0.020667,-0.375667,-0.340667
977392668,-0.378413,0.000000,11.299703,-0.099524,0.048230,-0.031975,0.023333,-0.375000,-0.342667
977402668,-0.407153,-0.055085,11.385923,-0.095527,0.046897,-0.030910,0.025000,-0.373333,-0.340667
977412669,-0.385598,-0.052690,11.462564,-0.095260,0.046897,-0.028112,0.022333,-0.371667,-0.340000
977422669,-0.471819,-0.002395,11.376344,-0.092329,0.050095,-0.027979,0.023333,-0.371667,-0.342000
977432669,-0.431104,-0.045505,11.270963,-0.094994,0.045299,-0.029711,0.022333,-0.374000,-0.342000
977442669,-0.392783,-0.028740,11.443404,-0.096726,0.045032,-0.029844,0.022333,-0.374000,-0.342000
977452669,-0.402363,0.009580,11.316468,-0.098991,0.050228,-0.031975,0.023333,-0.374000,-0.342667
977462670,-0.488584,0.026345,11.388318,-0.102188,0.047031,-0.029711,0.022333,-0.378333,-0.342000
977472672,-0.431104,0.059875,11.488909,-0.110315,0.044899,-0.032109,0.020333,-0.379000,-0.343667
977482673,-0.555645,-0.045505,11.306888,-0.114046,0.043700,-0.030776,0.023333,-0.375667,-0.340667
977492674,-0.560435,0.009580,11.333233,-0.113513,0.031443,-0.030377,0.017000,-0.375667,-0.339000
977502674,-0.646655,-0.038320,11.412269,-0.112447,0.027046,-0.029178,0.017667,-0.376667,-0.339000
977512674,-0.565225,-0.033530,11.275752,-0.110582,0.019185,-0.028511,0.021667,-0.372333,-0.336000
977522674,-0.459844,-0.031135,11.412269,-0.108051,0.018652,-0.031709,0.022333,-0.376667,-0.340000
977532675,-0.371228,-0.105381,11.371553,-0.105253,0.017587,-0.031709,0.021667,-0.376667,-0.343667
977542675,-0.313748,-0.026345,11.309282,-0.107784,0.018652,-0.028511,0.023333,-0.375000,-0.337333
977552676,-0.282612,-0.023950,11.330838,-0.104320,0.025714,-0.027845,0.021667,-0.372333,-0.343667
977562677,-0.409548,-0.067061,11.405084,-0.099391,0.031176,-0.025714,0.021667,-0.380667,-0.340000
977572677,-0.395178,0.033530,11.361973,-0.102588,0.028778,-0.026247,0.021667,-0.380000,-0.337333
977582678,-0.514929,-0.093406,11.361973,-0.102855,0.031176,-0.028911,0.021667,-0.375667,-0.342000
977592680,-0.443079,-0.002395,11.424244,-0.100856,0.031043,-0.028511,0.022333,-0.375000,-0.340667
977602682,-0.416733,-0.009580,11.395503,-0.099257,0.026113,-0.028245,0.025667,-0.374000,-0.340667
977612684,-0.462239,-0.055085,11.402688,-0.099790,0.028645,-0.024648,0.025000,-0.373333,-0.342000
977622685,-0.366438,-0.004790,11.441009,-0.101655,0.030510,-0.028245,0.021667,-0.372333,-0.340667
977632685,-0.426313,0.045505,11.340418,-0.103521,0.027046,-0.029044,0.018667,-0.375667,-0.340000
977642687,-0.296982,-0.019160,11.364368,-0.102855,0.029311,-0.028778,0.022333,-0.378333,-0.343667
977652687,-0.289797,-0.007185,11.321258,-0.102588,0.033175,-0.026380,0.021667,-0.375667,-0.340667
977662689,-0.253872,-0.021555,11.395503,-0.099391,0.036372,-0.027845,0.024000,-0.372333,-0.340667
977672690,-0.318538,-0.031135,11.326048,-0.098458,0.046498,-0.030243,0.023333,-0.375667,-0.344333
977682690,-0.404758,-0.043110,11.412269,-0.095793,0.045299,-0.029178,0.018667,-0.376667,-0.340667
977692692,-0.457449,-0.028740,11.419454,-0.096193,0.045965,-0.027979,0.024000,-0.376667,-0.346667
977702692,-0.359253,0.045505,11.429033,-0.100723,0.042634,-0.029444,0.021667,-0.376667,-0.340667
977712694,-0.376018,0.011975,11.330838,-0.103254,0.046098,-0.032109,0.025667,-0.376667,-0.343667
977722695,-0.347278,-0.002395,11.407478,-0.105652,0.047297,-0.029711,0.022333,-0.375667,-0.346667
977732697,-0.304167,-0.040715,11.371553,-0.103920,0.045698,-0.029044,0.021667,-0.376667,-0.339000
977742697,-0.359253,-0.035925,11.376344,-0.100057,0.048629,-0.030643,0.019333,-0.377333,-0.340667
977752698,-0.445474,-0.064666,11.381133,-0.101389,0.048629,-0.028112,0.021667,-0.379000,-0.340667
977762699,-0.364043,-0.021555,11.455379,-0.099391,0.048763,-0.028778,0.020667,-0.376667,-0.343667
977772700,-0.407153,-0.043110,11.476934,-0.095527,0.052360,-0.029044,0.022333,-0.376667,-0.344333
977782700,-0.433499,0.004790,11.412269,-0.092995,0.047697,-0.027579,0.020667,-0.375667,-0.342000
977792702,-0.347278,-0.009580,11.333233,-0.097126,0.045832,-0.027046,0.021667,-0.379000,-0.337333
977802703,-0.409548,0.000000,11.409874,-0.099257,0.049296,-0.029444,0.022333,-0.382333,-0.338333
977812703,-0.440684,0.038320,11.421848,-0.102322,0.042900,-0.031043,0.020333,-0.376667,-0.336000
977822704,-0.459844,-0.019160,11.328443,-0.102855,0.040103,-0.029178,0.023333,-0.379000,-0.336000
977832704,-0.474214,-0.011975,11.330838,-0.101655,0.035972,-0.028645,0.022333,-0.379000,-0.339000
977842706,-0.486189,0.071851,11.275752,-0.103121,0.034773,-0.027579,0.019333,-0.374000,-0.340667
977852707,-0.462239,0.052690,11.395503,-0.108051,0.027312,-0.032109,0.026667,-0.373333,-0.340000
977862709,-0.514929,0.021555,11.323653,-0.108450,0.029311,-0.028112,0.021667,-0.377333,-0.340667
977872711,-0.428709,-0.004790,11.388318,-0.110582,0.025047,-0.032508,0.020333,-0.377333,-0.342667
977882713,-0.419128,0.002395,11.354788,-0.110848,0.021983,-0.033441,0.017667,-0.376667,-0.340000
977892715,-0.426313,-0.004790,11.349998,-0.115245,0.025314,-0.027179,0.022333,-0.372333,-0.340667
977902716,-0.498164,-0.007185,11.376344,-0.116577,0.023848,-0.030510,0.022333,-0.376667,-0.338333
977912717,-0.445474,0.023950,11.378738,-0.115911,0.022516,-0.030110,0.021667,-0.377333,-0.340000
977922717,-0.397573,-0.021555,11.335628,-0.116044,0.020384,-0.031443,0.019333,-0.373333,-0.336000
977932719,-0.383203,-0.023950,11.369158,-0.116178,0.016654,-0.030377,0.021667,-0.375000,-0.337333
977942719,-0.349673,-0.076641,11.309282,-0.111781,0.025181,-0.028778,0.023333,-0.374000,-0.342000
977952721,-0.364043,-0.079036,11.383529,-0.106585,0.030243,-0.028645,0.025000,-0.380667,-0.343667
977962722,-0.431104,0.043110,11.338023,-0.107651,0.029977,-0.028645,0.026667,-0.377333,-0.338333
977972722,-0.397573,-0.043110,11.462564,-0.102721,0.036239,-0.030110,0.022333,-0.380667,-0.338333
977982722,-0.371228,0.002395,11.354788,-0.099524,0.037571,-0.029178,0.027333,-0.377333,-0.339000
977992723,-0.376018,0.016765,11.395503,-0.099524,0.040369,-0.029577,0.021667,-0.376667,-0.340667
978002724,-0.368833,0.038320,11.407478,-0.102322,0.045032,-0.027979,0.023333,-0.375667,-0.339000
978012724,-0.423918,0.004790,11.369158,-0.100456,0.045032,-0.028378,0.023333,-0.378333,-0.342000
978022724,-0.411943,-0.016765,11.462564,-0.100590,0.039170,-0.028645,0.023333,-0.376667,-0.339000
978032725,-0.373623,0.028740,11.263778,-0.102588,0.037971,-0.022250,0.025667,-0.373333,-0.340000
978042725,-0.344883,-0.021555,11.352393,-0.107518,0.039037,-0.027312,0.020333,-0.378333,-0.344333
978052725,-0.320933,-0.074246,11.326048,-0.103121,0.042767,-0.027712,0.020333,-0.377333,-0.342667
978062726,-0.347278,-0.055085,11.397899,-0.096726,0.047164,-0.025580,0.021667,-0.376667,-0.340667
978072726,-0.383203,-0.047900,11.366763,-0.100856,0.044632,-0.025714,0.019333,-0.375667,-0.339000
978082727,-0.407153,-0.146096,11.294912,-0.094328,0.042368,-0.026779,0.023333,-0.378333,-0.343667
978092728,-0.457449,-0.050295,11.345208,-0.090730,0.044233,-0.027446,0.024000,-0.379000,-0.343667
978102730,-0.443079,-0.052690,11.364368,-0.086867,0.046897,-0.026113,0.024000,-0.369000,-0.343667
978112732,-0.416733,-0.011975,11.347603,-0.083536,0.039436,-0.026113,0.025667,-0.378333,-0.350000
978122733,-0.488584,-0.069456,11.376344,-0.079139,0.039836,-0.022383,0.024000,-0.376667,-0.340667
978132735,-0.443079,-0.064666,11.395503,-0.076075,0.047031,-0.026380,0.026667,-0.378333,-0.342667
978142736,-0.359253,-0.038320,11.347603,-0.072478,0.042234,-0.028112,0.018667,-0.374000,-0.342000
978152737,-0.402363,0.014370,11.349998,-0.074743,0.039170,-0.030377,0.020333,-0.377333,-0.340000
978162738,-0.399968,0.031135,11.373948,-0.077407,0.041835,-0.027579,0.020667,-0.376667,-0.340000
978172738,-0.474214,0.069456,11.359578,-0.081404,0.039170,-0.025181,0.025000,-0.375667,-0.340000
978182738,-0.486189,0.093406,11.426639,-0.089398,0.029977,-0.026646,0.020667,-0.376667,-0.339000
978192738,-0.514929,-0.038320,11.349998,-0.095660,0.030510,-0.029044,0.019333,-0.377333,-0.336000
978202738,-0.409548,-0.052690,11.354788,-0.098991,0.022516,-0.029444,0.021667,-0.377333,-0.342000
978212739,-0.320933,-0.002395,11.381133,-0.101389,0.027446,-0.030377,0.019333,-0.378333,-0.340000
978222739,-0.361648,-0.004790,11.309282,-0.099124,0.027179,-0.030243,0.021667,-0.379000,-0.337333
978232741,-0.320933,0.004790,11.323653,-0.098058,0.029977,-0.029977,0.017667,-0.378333,-0.339000
978242742,-0.361648,0.083826,11.323653,-0.098458,0.038904,-0.027312,0.019333,-0.373333,-0.340000
978252744,-0.347278,0.100591,11.381133,-0.105919,0.040636,-0.033175,0.019333,-0.374000,-0.340667
978262746,-0.459844,0.023950,11.407478,-0.105652,0.044100,-0.030243,0.021667,-0.375000,-0.338333
978272748,-0.479004,0.026345,11.306888,-0.113646,0.036106,-0.031709,0.022333,-0.375667,-0.342000
978282748,-0.438289,0.050295,11.299703,-0.119642,0.030910,-0.034907,0.024000,-0.376667,-0.337333
978292749,-0.378413,0.062271,11.349998,-0.123905,0.028911,-0.033175,0.023333,-0.376667,-0.340667
978302751,-0.495769,-0.021555,11.328443,-0.126436,0.024248,-0.030776,0.021667,-0.377333,-0.342000
978312752,-0.459844,-0.057480,11.323653,-0.128035,0.021051,-0.032508,0.020333,-0.377333,-0.340000
978322754,-0.502954,-0.047900,11.357183,-0.121240,0.017453,-0.032242,0.025000,-0.374000,-0.340000
978332754,-0.498164,-0.057480,11.345208,-0.119508,0.014922,-0.029844,0.022333,-0.375000,-0.340000
978342756,-0.433499,-0.057480,11.333233,-0.112447,0.020784,-0.032642,0.015333,-0.378333,-0.342667
978352757,-0.407153,-0.028740,11.311678,-0.104986,0.022383,-0.030910,0.019333,-0.376667,-0.343667
978362758,-0.320933,-0.007185,11.385923,-0.101123,0.028112,-0.030110,0.021667,-0.377333,-0.339000
978372758,-0.256267,-0.021555,11.426639,-0.099657,0.035839,-0.032109,0.020333,-0.380000,-0.340000
978382758,-0.275427,-0.021555,11.366763,-0.102721,0.033574,-0.028778,0.021667,-0.374000,-0.342667
978392760,-0.270637,-0.021555,11.340418,-0.103521,0.040369,-0.025980,0.017667,-0.376667,-0.339000
978402762,-0.359253,-0.023950,11.349998,-0.112181,0.042368,-0.033308,0.020333,-0.380000,-0.334333
978412764,-0.419128,-0.038320,11.378738,-0.113779,0.040103,-0.028511,0.019333,-0.375000,-0.339000
978422765,-0.364043,0.069456,11.282937,-0.121374,0.036505,-0.026113,0.021667,-0.375000,-0.338333
978432766,-0.431104,0.050295,11.359578,-0.121507,0.033441,-0.027179,0.020333,-0.376667,-0.337333
978442768,-0.474214,-0.014370,11.338023,-0.123106,0.035173,-0.027046,0.025667,-0.378333,-0.334333
978452769,-0.399968,-0.026345,11.330838,-0.124305,0.027312,-0.027312,0.025667,-0.374000,-0.338333
978462771,-0.387993,-0.009580,11.354788,-0.124971,0.027845,-0.030910,0.021667,-0.375000,-0.338333
978472773,-0.443079,-0.026345,11.314073,-0.116844,0.026913,-0.029444,0.024000,-0.375000,-0.340000
978482774,-0.428709,-0.081431,11.426639,-0.116844,0.031975,-0.025314,0.022333,-0.375667,-0.338333
978493585,-0.373623,-0.043110,11.376344,-0.114979,0.027712,-0.026513,0.025000,-0.375000,-0.339000
978503585,-0.414338,-0.004790,11.460169,-0.116977,0.027845,-0.025447,0.024000,-0.378333,-0.340667
978513587,-0.385598,-0.074246,11.402688,-0.124971,0.024781,-0.028911,0.020333,-0.378333,-0.340667
978523587,-0.304167,-0.007185,11.381133,-0.113913,0.024914,-0.027179,0.020667,-0.377333,-0.335333
978533588,-0.292192,-0.079036,11.388318,-0.108717,0.028645,-0.024515,0.021667,-0.371667,-0.342667
978543589,-0.323328,-0.110171,11.390714,-0.101922,0.035306,-0.026513,0.023333,-0.379000,-0.337333
978553589,-0.282612,-0.107776,11.213482,-0.099257,0.036505,-0.023715,0.021667,-0.375667,-0.338333
978563591,-0.349673,-0.059875,11.347603,-0.087133,0.036772,-0.024914,0.020667,-0.375000,-0.340667
978573591,-0.323328,-0.088616,11.359578,-0.077141,0.046231,-0.025980,0.020667,-0.369000,-0.338333
978583591,-0.352068,-0.047900,11.357183,-0.076208,0.049296,-0.026913,0.022333,-0.372333,-0.340667
978593592,-0.359253,-0.093406,11.366763,-0.079539,0.046764,-0.025980,0.018667,-0.374000,-0.339000
978603594,-0.285007,-0.028740,11.354788,-0.082204,0.049695,-0.024781,0.017000,-0.378333,-0.338333
978613595,-0.268242,-0.057480,11.409874,-0.075409,0.055824,-0.022916,0.020667,-0.379000,-0.340667
978623595,-0.387993,0.026345,11.292518,-0.078740,0.053692,-0.027579,0.020667,-0.374000,-0.336000
978633595,-0.395178,0.011975,11.414663,-0.085668,0.054891,-0.028911,0.022333,-0.375000,-0.339000
978643597,-0.409548,-0.002395,11.340418,-0.085135,0.057556,-0.025980,0.022333,-0.372333,-0.343667
978653598,-0.359253,0.047900,11.347603,-0.084335,0.055957,-0.027979,0.025000,-0.376667,-0.342667
978663598,-0.371228,-0.007185,11.366763,-0.087400,0.052093,-0.028778,0.022333,-0.375667,-0.339000
978673600,-0.423918,0.112566,11.302097,-0.097126,0.051427,-0.027845,0.020333,-0.376667,-0.334333
978683602,-0.419128,-0.047900,11.340418,-0.100456,0.049162,-0.031176,0.023333,-0.378333,-0.338333
978693604,-0.467029,0.000000,11.326048,-0.100456,0.048763,-0.028511,0.018667,-0.376667,-0.337333
978703605,-0.519719,-0.023950,11.282937,-0.100190,0.049162,-0.029577,0.023333,-0.375667,-0.340667
978713607,-0.340093,0.019160,11.421848,-0.102322,0.045432,-0.029844,0.023333,-0.380000,-0.340000
978723609,-0.378413,-0.047900,11.273357,-0.101922,0.047830,-0.028778,0.022333,-0.375667,-0.342000
978733611,-0.423918,-0.043110,11.326048,-0.103787,0.047697,-0.028511,0.025000,-0.377333,-0.336000
978743611,-0.409548,0.000000,11.409874,-0.105519,0.046498,-0.030377,0.023333,-0.375667,-0.343667
978753611,-0.387993,0.033530,11.378738,-0.106319,0.043300,-0.030377,0.021667,-0.375000,-0.342667
978763613,-0.450264,-0.016765,11.357183,-0.107917,0.041835,-0.029044,0.022333,-0.378333,-0.339000
978773613,-0.426313,-0.019160,11.345208,-0.104054,0.041568,-0.029178,0.021667,-0.380000,-0.340000
978783613,-0.407153,-0.026345,11.429033,-0.108983,0.038504,-0.029577,0.023333,-0.376667,-0.342000
978793613,-0.409548,0.031135,11.330838,-0.106319,0.039969,-0.030643,0.022333,-0.372333,-0.342667
978803614,-0.428709,-0.014370,11.266172,-0.107518,0.039836,-0.027979,0.020333,-0.377333,-0.342667
978813615,-0.407153,-0.021555,11.393108,-0.100190,0.041835,-0.030243,0.020667,-0.378333,-0.340000
978823615,-0.392783,-0.031135,11.321258,-0.097925,0.041568,-0.027579,0.020667,-0.376667,-0.338333
978833617,-0.349673,-0.019160,11.318863,-0.097792,0.038504,-0.030110,0.020667,-0.380000,-0.334333
978843618,-0.431104,-0.028740,11.388318,-0.101789,0.036239,-0.029178,0.017667,-0.373333,-0.334333
978853620,-0.414338,0.038320,11.342813,-0.100190,0.036106,-0.025714,0.017667,-0.376667,-0.336000
978863621,-0.354463,0.004790,11.361973,-0.100989,0.036372,-0.030910,0.021667,-0.375000,-0.340000
978873622,-0.421523,0.026345,11.340418,-0.104720,0.033441,-0.028378,0.018667,-0.376667,-0.337333
978883624,-0.428709,0.000000,11.385923,-0.105652,0.038371,-0.027446,0.025000,-0.374000,-0.336000
978893624,-0.481399,-0.062271,11.333233,-0.106185,0.034107,-0.030110,0.022333,-0.378333,-0.340000
978903625,-0.459844,-0.074246,11.326048,-0.102988,0.030910,-0.025847,0.022333,-0.375667,-0.342000
978913626,-0.392783,-0.040715,11.335628,-0.106052,0.031576,-0.028911,0.020667,-0.377333,-0.339000
978923626,-0.332908,-0.088616,11.421848,-0.104320,0.038237,-0.029977,0.020333,-0.374000,-0.344333
978933626,-0.316143,-0.071851,11.347603,-0.098591,0.037172,-0.030377,0.020667,-0.375667,-0.344333
978943626,-0.414338,-0.043110,11.304493,-0.100989,0.040236,-0.026113,0.020667,-0.377333,-0.342667
978953628,-0.387993,-0.059875,11.290123,-0.100723,0.039836,-0.027179,0.022333,-0.375667,-0.345333
978963628,-0.455054,-0.055085,11.407478,-0.098591,0.039703,-0.027579,0.021667,-0.376667,-0.338333
978973630,-0.409548,-0.026345,11.338023,-0.100590,0.038904,-0.028245,0.020333,-0.375667,-0.342000
978983632,-0.404758,-0.031135,11.407478,-0.100856,0.036905,-0.030377,0.023333,-0.375667,-0.336000
978993634,-0.423918,-0.004790,11.369158,-0.102055,0.040103,-0.030510,0.024000,-0.374000,-0.338333
979003635,-0.330513,-0.043110,11.352393,-0.097792,0.041701,-0.027312,0.023333,-0.375000,-0.339000
979013636,-0.387993,-0.122146,11.359578,-0.098191,0.041302,-0.031576,0.021667,-0.376667,-0.342000
979023638,-0.455054,-0.038320,11.381133,-0.099257,0.043700,-0.028378,0.020667,-0.374000,-0.342000
979033639,-0.416733,0.014370,11.354788,-0.094994,0.040636,-0.027845,0.023333,-0.376667,-0.338333
979043639,-0.450264,-0.019160,11.452984,-0.099657,0.034640,-0.026913,0.025667,-0.377333,-0.342667
979053640,-0.483794,-0.007185,11.314073,-0.097792,0.034507,-0.028911,0.026667,-0.376667,-0.342667
979063640,-0.514929,-0.026345,11.366763,-0.100057,0.032908,-0.029444,0.022333,-0.377333,-0.340667
979073642,-0.342488,0.021555,11.378738,-0.098191,0.035972,-0.029577,0.025000,-0.378333,-0.342667
979083644,-0.366438,0.000000,11.455379,-0.096593,0.033441,-0.030110,0.025667,-0.376667,-0.338333
979093645,-0.397573,0.052690,11.338023,-0.099923,0.035839,-0.027979,0.023333,-0.375000,-0.338333
979103646,-0.411943,0.004790,11.433824,-0.102855,0.035040,-0.030377,0.021667,-0.377333,-0.338333
979113646,-0.376018,-0.004790,11.328443,-0.105652,0.033441,-0.031309,0.022333,-0.375000,-0.335333
979123648,-0.488584,-0.040715,11.323653,-0.107518,0.032508,-0.028645,0.020333,-0.375667,-0.337333
979133649,-0.397573,-0.088616,11.376344,-0.105253,0.033574,-0.029311,0.025000,-0.375000,-0.339000
979143650,-0.364043,-0.050295,11.311678,-0.104453,0.034773,-0.026247,0.017000,-0.375667,-0.337333
979153650,-0.395178,-0.076641,11.306888,-0.107784,0.030510,-0.030110,0.018667,-0.380000,-0.338333
979163651,-0.373623,-0.014370,11.376344,-0.105119,0.032109,-0.029311,0.022333,-0.377333,-0.339000
979173653,-0.387993,-0.009580,11.452984,-0.104320,0.032775,-0.029444,0.023333,-0.374000,-0.346667
979183655,-0.376018,-0.081431,11.400293,-0.101789,0.031842,-0.028645,0.020333,-0.375000,-0.340667
979193657,-0.411943,-0.112566,11.409874,-0.097792,0.032642,-0.029711,0.019333,-0.375667,-0.340000
979203657,-0.390388,0.007185,11.328443,-0.099524,0.031043,-0.028112,0.022333,-0.375667,-0.340000
979213658,-0.344883,-0.028740,11.338023,-0.101389,0.035440,-0.027312,0.022333,-0.377333,-0.339000
979223660,-0.452659,-0.083826,11.381133,-0.097792,0.031043,-0.025447,0.017667,-0.374000,-0.342667
979233660,-0.337698,0.004790,11.431429,-0.095793,0.034107,-0.030243,0.023333,-0.375667,-0.340667
979243662,-0.368833,-0.007185,11.469749,-0.101922,0.035306,-0.029577,0.021667,-0.373333,-0.340000
979253663,-0.313748,-0.064666,11.369158,-0.102721,0.033574,-0.029178,0.019333,-0.373333,-0.340667
979263665,-0.438289,0.026345,11.321258,-0.103787,0.038504,-0.029178,0.022333,-0.374000,-0.339000
979273667,-0.507744,0.028740,11.421848,-0.103787,0.037838,-0.028778,0.017000,-0.379000,-0.347333
979283668,-0.447869,0.093406,11.397899,-0.105386,0.035306,-0.030110,0.020667,-0.371667,-0.340667
979293669,-0.378413,0.016765,11.378738,-0.106452,0.033308,-0.028245,0.020667,-0.378333,-0.340000
979303669,-0.440684,-0.079036,11.438614,-0.105919,0.031709,-0.027979,0.020667,-0.375000,-0.342667
979313670,-0.383203,-0.057480,11.333233,-0.104853,0.037038,-0.033308,0.017667,-0.377333,-0.340000
979323672,-0.308958,-0.052690,11.294912,-0.102721,0.037172,-0.029178,0.022333,-0.375000,-0.337333
979333674,-0.347278,-0.071851,11.285333,-0.100057,0.037438,-0.027845,0.020333,-0.371667,-0.340667
979343676,-0.440684,0.007185,11.405084,-0.100057,0.042234,-0.028911,0.023333,-0.375000,-0.340667
979353677,-0.445474,0.009580,11.378738,-0.103654,0.038770,-0.026113,0.022333,-0.378333,-0.346667
979363678,-0.443079,-0.014370,11.273357,-0.103654,0.038904,-0.029311,0.021667,-0.377333,-0.342000
979373679,-0.490979,0.031135,11.354788,-0.102188,0.041968,-0.030243,0.024000,-0.376667,-0.342667
979383679,-0.426313,-0.074246,11.421848,-0.109783,0.036106,-0.028778,0.022333,-0.372333,-0.343667
979393681,-0.411943,-0.043110,11.445799,-0.103920,0.035839,-0.027845,0.020667,-0.379000,-0.334333
979403681,-0.352068,-0.047900,11.395503,-0.101522,0.037438,-0.031309,0.025667,-0.375667,-0.339000
979413681,-0.371228,-0.148491,11.407478,-0.100190,0.035573,-0.027979,0.021667,-0.376667,-0.340000
979423682,-0.371228,-0.059875,11.424244,-0.096193,0.037571,-0.029977,0.020333,-0.379000,-0.342000
979433683,-0.332908,-0.009580,11.397899,-0.103920,0.033974,-0.029577,0.020333,-0.380667,-0.345333
979443683,-0.409548,-0.047900,11.378738,-0.098724,0.040103,-0.030510,0.022333,-0.375667,-0.336000
979453685,-0.371228,-0.021555,11.270963,-0.098325,0.039436,-0.028511,0.022333,-0.375000,-0.340667
979463686,-0.371228,-0.038320,11.369158,-0.097659,0.040769,-0.029711,0.025667,-0.376667,-0.342000
979473686,-0.421523,0.009580,11.359578,-0.098591,0.040769,-0.026247,0.024000,-0.375000,-0.344333
979483686,-0.459844,0.033530,11.338023,-0.102188,0.040769,-0.028511,0.022333,-0.373333,-0.340667
979493687,-0.438289,-0.023950,11.378738,-0.102855,0.035306,-0.029178,0.020667,-0.375000,-0.347333
979503689,-0.438289,-0.009580,11.364368,-0.103121,0.036639,-0.029044,0.022333,-0.378333,-0.342000
979513689,-0.469424,0.009580,11.397899,-0.109783,0.032375,-0.027312,0.024000,-0.374000,-0.343667
979523691,-0.364043,0.011975,11.347603,-0.107518,0.034374,-0.027979,0.020333,-0.377333,-0.343667
979533691,-0.376018,-0.004790,11.419454,-0.107784,0.035573,-0.029044,0.024000,-0.380000,-0.343667
979543692,-0.385598,-0.057480,11.429033,-0.105386,0.034773,-0.030910,0.025000,-0.381667,-0.342000
979553694,-0.428709,0.002395,11.436219,-0.103387,0.037971,-0.029844,0.022333,-0.378333,-0.343667
979563694,-0.402363,-0.009580,11.357183,-0.104720,0.038904,-0.028645,0.025667,-0.377333,-0.345333
979573694,-0.421523,-0.031135,11.326048,-0.101922,0.034240,-0.025980,0.021667,-0.374000,-0.340000
979583696,-0.421523,0.009580,11.333233,-0.104986,0.034240,-0.028911,0.022333,-0.371667,-0.338333
979593696,-0.409548,0.035925,11.405084,-0.103254,0.036372,-0.029844,0.023333,-0.377333,-0.340667
979603697,-0.433499,0.016765,11.323653,-0.105119,0.033308,-0.028245,0.026667,-0.376667,-0.340667
979613698,-0.392783,-0.035925,11.431429,-0.099391,0.036639,-0.025714,0.020667,-0.377333,-0.336000
979623699,-0.352068,-0.052690,11.292518,-0.103654,0.035573,-0.027579,0.021667,-0.376667,-0.339000
979633701,-0.383203,-0.016765,11.318863,-0.103121,0.029977,-0.029444,0.017667,-0.375667,-0.343667
979643702,-0.385598,-0.091011,11.318863,-0.104320,0.030643,-0.029977,0.020333,-0.377333,-0.342667
979653702,-0.313748,-0.052690,11.484119,-0.101789,0.037571,-0.025314,0.021667,-0.376667,-0.340667
979663702,-0.361648,0.035925,11.385923,-0.101389,0.033441,-0.030910,0.021667,-0.376667,-0.340000
979673703,-0.356858,-0.023950,11.366763,-0.103387,0.035440,-0.029977,0.023333,-0.376667,-0.340000
979683703,-0.325723,0.045505,11.421848,-0.105519,0.029711,-0.025714,0.021667,-0.378333,-0.340000
979693704,-0.378413,0.004790,11.388318,-0.112047,0.031842,-0.032375,0.022333,-0.375000,-0.342667
979703706,-0.402363,-0.028740,11.306888,-0.110982,0.032242,-0.028511,0.019333,-0.376667,-0.342000
979713708,-0.443079,-0.052690,11.402688,-0.108583,0.032908,-0.029577,0.019333,-0.375667,-0.342667
979723708,-0.502954,-0.062271,11.349998,-0.108717,0.027446,-0.026646,0.022333,-0.381667,-0.335333
979733708,-0.419128,-0.057480,11.388318,-0.103920,0.030643,-0.025181,0.019333,-0.376667,-0.338333
979743709,-0.368833,-0.069456,11.364368,-0.100856,0.033308,-0.025980,0.022333,-0.376667,-0.337333
979753709,-0.301772,-0.028740,11.306888,-0.098724,0.038104,-0.026113,0.022333,-0.376667,-0.336000
979763709,-0.304167,-0.055085,11.347603,-0.098325,0.041835,-0.025047,0.020333,-0.375000,-0.339000
979773710,-0.435894,-0.007185,11.395503,-0.097259,0.038504,-0.024648,0.021667,-0.375000,-0.339000
979783711,-0.471819,-0.095801,11.335628,-0.097392,0.039703,-0.025580,0.018667,-0.378333,-0.337333
979793713,-0.538879,0.023950,11.433824,-0.097925,0.034907,-0.025714,0.019333,-0.377333,-0.339000
979803713,-0.428709,0.004790,11.309282,-0.100323,0.034773,-0.027845,0.025000,-0.375667,-0.330667
979813715,-0.380808,0.033530,11.464959,-0.102588,0.039037,-0.028778,0.021667,-0.377333,-0.340667
979823717,-0.318538,-0.069456,11.330838,-0.102455,0.033308,-0.029444,0.020333,-0.378333,-0.338333
979833717,-0.395178,-0.064666,11.249407,-0.102988,0.033041,-0.026646,0.020333,-0.377333,-0.340000
979843718,-0.371228,-0.043110,11.342813,-0.105652,0.035040,-0.027446,0.021667,-0.375667,-0.339000
979853720,-0.335303,0.000000,11.405084,-0.104720,0.034640,-0.027579,0.022333,-0.376667,-0.338333
979863720,-0.318538,-0.081431,11.357183,-0.105652,0.040769,-0.027046,0.018667,-0.375000,-0.338333
979873722,-0.268242,-0.007185,11.292518,-0.100323,0.043433,-0.028245,0.023333,-0.376667,-0.332667
979883723,-0.330513,-0.093406,11.402688,-0.098458,0.046231,-0.029311,0.022333,-0.380000,-0.337333
979893724,-0.414338,-0.069456,11.247012,-0.097659,0.045165,-0.029444,0.020333,-0.374000,-0.338333
979903726,-0.562830,-0.035925,11.431429,-0.096726,0.042234,-0.029444,0.019333,-0.375000,-0.338333
979913727,-0.464634,0.002395,11.321258,-0.101389,0.042501,-0.027446,0.022333,-0.377333,-0.338333
979923729,-0.452659,0.009580,11.273357,-0.103654,0.035706,-0.029044,0.023333,-0.377333,-0.340000
979933731,-0.371228,0.004790,11.323653,-0.102855,0.038904,-0.028778,0.015333,-0.375667,-0.342667
979943731,-0.359253,-0.038320,11.407478,-0.101522,0.039703,-0.028112,0.021667,-0.377333,-0.340000
979953731,-0.320933,0.016765,11.309282,-0.103654,0.037038,-0.030243,0.020667,-0.370000,-0.339000
979963733,-0.349673,0.002395,11.371553,-0.105386,0.041035,-0.024248,0.020333,-0.374000,-0.333667
979973735,-0.373623,-0.043110,11.431429,-0.107651,0.040502,-0.027446,0.025000,-0.378333,-0.340667
979983735,-0.395178,-0.031135,11.349998,-0.104054,0.042900,-0.030776,0.020667,-0.375000,-0.338333
979993736,-0.431104,-0.023950,11.390714,-0.103654,0.042634,-0.028645,0.023333,-0.375667,-0.339000
980003736,-0.459844,0.021555,11.452984,-0.103787,0.037438,-0.028911,0.020333,-0.374000,-0.338333
980013738,-0.397573,-0.057480,11.371553,-0.102721,0.036505,-0.030377,0.019333,-0.375667,-0.338333
980023739,-0.356858,-0.007185,11.395503,-0.102588,0.034507,-0.025714,0.020667,-0.380667,-0.335333
980033740,-0.330513,-0.021555,11.280542,-0.102322,0.034773,-0.027712,0.020333,-0.374000,-0.340000
980043742,-0.359253,-0.031135,11.333233,-0.104453,0.035573,-0.029844,0.018667,-0.378333,-0.337333
980053742,-0.378413,0.016765,11.338023,-0.103121,0.039170,-0.027845,0.025000,-0.378333,-0.331667
980063744,-0.431104,0.043110,11.361973,-0.102455,0.038371,-0.027179,0.024000,-0.378333,-0.334333
980073744,-0.407153,-0.052690,11.349998,-0.102188,0.037704,-0.031443,0.019333,-0.375667,-0.330000
980083746,-0.464634,-0.021555,11.361973,-0.105119,0.037305,-0.025447,0.020667,-0.375000,-0.334333
980093747,-0.546064,-0.026345,11.249407,-0.104054,0.038770,-0.027579,0.020667,-0.378333,-0.338333
980103748,-0.428709,-0.045505,11.385923,-0.101655,0.037438,-0.026646,0.022333,-0.376667,-0.340667
980113749,-0.447869,0.014370,11.364368,-0.106319,0.030910,-0.029178,0.020333,-0.376667,-0.339000
980123750,-0.359253,-0.079036,11.299703,-0.108051,0.031709,-0.027579,0.024000,-0.375000,-0.335333
980133752,-0.366438,-0.074246,11.318863,-0.101522,0.034507,-0.028245,0.020333,-0.380000,-0.336000
980143752,-0.455054,-0.023950,11.287727,-0.100057,0.038504,-0.026646,0.020667,-0.375000,-0.336000
980153752,-0.344883,-0.052690,11.208692,-0.098858,0.039836,-0.029044,0.020667,-0.378333,-0.333667
980163753,-0.419128,0.011975,11.321258,-0.095926,0.035706,-0.028778,0.025667,-0.375667,-0.337333
980173754,-0.423918,-0.052690,11.371553,-0.097126,0.039037,-0.027046,0.020333,-0.375000,-0.334333
980183756,-0.347278,-0.019160,11.388318,-0.097659,0.038904,-0.028112,0.023333,-0.373333,-0.334333
980193757,-0.349673,-0.016765,11.441009,-0.098058,0.037971,-0.027446,0.020667,-0.375667,-0.339000
980203758,-0.402363,-0.023950,11.393108,-0.098991,0.039436,-0.028511,0.022333,-0.375000,-0.337333
980213758,-0.423918,0.002395,11.340418,-0.100323,0.038104,-0.027579,0.017000,-0.375000,-0.336000
980223759,-0.380808,0.023950,11.349998,-0.101922,0.038770,-0.024648,0.027333,-0.378333,-0.340667
980233760,-0.414338,-0.028740,11.354788,-0.099790,0.039037,-0.028645,0.024000,-0.378333,-0.339000
980243760,-0.469424,-0.059875,11.421848,-0.104453,0.040902,-0.026646,0.018667,-0.376667,-0.340000
980253762,-0.344883,-0.110171,11.371553,-0.105386,0.040236,-0.026913,0.021667,-0.375000,-0.330000
980263762,-0.411943,-0.021555,11.373948,-0.105519,0.035306,-0.029044,0.021667,-0.379000,-0.338333
980273764,-0.500559,-0.016765,11.306888,-0.106985,0.039969,-0.028112,0.020667,-0.377333,-0.337333
980283766,-0.471819,0.047900,11.292518,-0.107651,0.034773,-0.029044,0.020667,-0.377333,-0.337333
980293766,-0.467029,-0.040715,11.352393,-0.106985,0.029178,-0.029577,0.021667,-0.377333,-0.339000
980303766,-0.464634,-0.071851,11.364368,-0.106052,0.033041,-0.027446,0.023333,-0.375667,-0.340667
980313768,-0.318538,-0.021555,11.397899,-0.105919,0.032242,-0.028378,0.018667,-0.378333,-0.337333
980323768,-0.340093,-0.038320,11.333233,-0.103121,0.040236,-0.028645,0.023333,-0.374000,-0.346667
980333770,-0.423918,-0.067061,11.349998,-0.098591,0.038371,-0.028378,0.019333,-0.374000,-0.342000
980343770,-0.404758,-0.043110,11.412269,-0.104453,0.037172,-0.028112,0.023333,-0.376667,-0.340667
980353771,-0.435894,-0.011975,11.369158,-0.099790,0.039037,-0.026247,0.021667,-0.380000,-0.340000
980363771,-0.426313,0.028740,11.421848,-0.101522,0.035173,-0.028112,0.017667,-0.376667,-0.338333
980373773,-0.337698,0.007185,11.376344,-0.101522,0.036772,-0.026779,0.023333,-0.377333,-0.338333
980383773,-0.390388,-0.002395,11.378738,-0.106851,0.034907,-0.028911,0.025000,-0.376667,-0.340667
980393773,-0.407153,0.023950,11.345208,-0.108583,0.034374,-0.027579,0.020667,-0.376667,-0.340667
980403775,-0.495769,-0.050295,11.345208,-0.109383,0.033708,-0.027845,0.023333,-0.376667,-0.339000
980413776,-0.438289,-0.014370,11.314073,-0.103254,0.034507,-0.027712,0.021667,-0.373333,-0.335333
980423776,-0.385598,-0.067061,11.302097,-0.105253,0.032642,-0.026247,0.020333,-0.379000,-0.340000
980433776,-0.265847,-0.004790,11.338023,-0.104054,0.038104,-0.027845,0.018667,-0.379000,-0.340000
980443777,-0.380808,-0.095801,11.354788,-0.100323,0.039436,-0.028645,0.019333,-0.374000,-0.338333
980453777,-0.421523,0.009580,11.364368,-0.099124,0.040369,-0.025447,0.025000,-0.376667,-0.340667
980463778,-0.423918,-0.052690,11.328443,-0.096859,0.038104,-0.026913,0.021667,-0.380000,-0.339000
980473780,-0.428709,0.071851,11.311678,-0.101389,0.036505,-0.025980,0.021667,-0.372333,-0.333667
980483781,-0.402363,-0.059875,11.323653,-0.096992,0.035839,-0.025980,0.017667,-0.377333,-0.337333
980494585,-0.361648,-0.064666,11.249407,-0.105519,0.037172,-0.028778,0.021667,-0.375667,-0.338333
980504587,-0.380808,0.052690,11.361973,-0.101655,0.037438,-0.028378,0.020333,-0.377333,-0.337333
980514589,-0.392783,-0.031135,11.316468,-0.101123,0.037038,-0.023315,0.017667,-0.375000,-0.334333
980524589,-0.409548,-0.040715,11.361973,-0.099790,0.034107,-0.030243,0.025000,-0.376667,-0.342667
980534590,-0.435894,0.050295,11.275752,-0.103121,0.035839,-0.026779,0.025667,-0.373333,-0.338333
980544590,-0.404758,-0.019160,11.304493,-0.100590,0.039170,-0.026646,0.021667,-0.378333,-0.340000
980554590,-0.383203,-0.026345,11.338023,-0.104587,0.044366,-0.026513,0.021667,-0.370000,-0.342667
980564592,-0.392783,-0.023950,11.412269,-0.102721,0.041568,-0.030776,0.025000,-0.376667,-0.339000
980574593,-0.512534,0.035925,11.385923,-0.105786,0.037038,-0.026380,0.019333,-0.377333,-0.342000
980584593,-0.507744,-0.043110,11.371553,-0.104320,0.037305,-0.029311,0.020667,-0.375667,-0.340000
980594594,-0.435894,-0.052690,11.321258,-0.101389,0.036639,-0.025047,0.020667,-0.377333,-0.342000
980604596,-0.385598,-0.067061,11.361973,-0.101922,0.037971,-0.026113,0.020667,-0.375667,-0.340000
980614598,-0.342488,-0.009580,11.323653,-0.103387,0.033974,-0.027979,0.020667,-0.373333,-0.335333
980624599,-0.349673,-0.059875,11.304493,-0.099923,0.036239,-0.027446,0.026667,-0.375000,-0.338333
980634600,-0.366438,0.000000,11.452984,-0.105119,0.035706,-0.027446,0.023333,-0.377333,-0.331667
980644600,-0.407153,-0.038320,11.278148,-0.102322,0.037704,-0.026380,0.022333,-0.379000,-0.342000
980654600,-0.364043,-0.019160,11.450589,-0.104054,0.042368,-0.025980,0.020333,-0.376667,-0.340667
980664601,-0.414338,-0.009580,11.335628,-0.106185,0.037838,-0.028511,0.024000,-0.373333,-0.339000
980674602,-0.452659,-0.007185,11.376344,-0.105119,0.034374,-0.027979,0.025000,-0.374000,-0.338333
980684602,-0.483794,-0.023950,11.330838,-0.105519,0.036772,-0.029178,0.022333,-0.374000,-0.340000
980694603,-0.457449,-0.016765,11.424244,-0.104187,0.033175,-0.023848,0.021667,-0.377333,-0.340000
980704604,-0.445474,-0.098196,11.448194,-0.108317,0.030243,-0.024648,0.023333,-0.379000,-0.336000
980714604,-0.423918,-0.067061,11.347603,-0.104587,0.033708,-0.024248,0.021667,-0.376667,-0.338333
980724605,-0.476609,-0.019160,11.330838,-0.102322,0.035573,-0.026913,0.023333,-0.376667,-0.343667
980734606,-0.416733,-0.026345,11.397899,-0.105119,0.031576,-0.030243,0.024000,-0.374000,-0.338333
980744607,-0.366438,-0.045505,11.273357,-0.102055,0.036239,-0.026247,0.020333,-0.377333,-0.340000
980754608,-0.294587,-0.035925,11.371553,-0.106052,0.034240,-0.027046,0.024000,-0.379000,-0.342667
980764609,-0.368833,0.014370,11.361973,-0.102322,0.041435,-0.026247,0.025667,-0.376667,-0.339000
980774611,-0.397573,0.007185,11.333233,-0.102988,0.035573,-0.025181,0.020333,-0.377333,-0.342000
980784613,-0.469424,-0.014370,11.280542,-0.101922,0.039570,-0.026513,0.024000,-0.377333,-0.342000
980794613,-0.450264,-0.052690,11.357183,-0.101123,0.040636,-0.025580,0.020667,-0.376667,-0.340000
980804615,-0.495769,-0.110171,11.369158,-0.104054,0.034507,-0.028911,0.018667,-0.378333,-0.342000
980814617,-0.426313,0.011975,11.390714,-0.100723,0.033974,-0.027845,0.020333,-0.376667,-0.342000
980824617,-0.402363,-0.047900,11.359578,-0.103654,0.036905,-0.028378,0.024000,-0.375000,-0.336000
980834617,-0.292192,-0.019160,11.388318,-0.104720,0.042234,-0.026513,0.020667,-0.375667,-0.339000
980844618,-0.342488,-0.035925,11.491304,-0.101389,0.043167,-0.028911,0.021667,-0.375667,-0.340000
980854618,-0.431104,-0.050295,11.326048,-0.097925,0.046897,-0.029178,0.020667,-0.375000,-0.344333
980864620,-0.387993,0.014370,11.376344,-0.096193,0.041968,-0.027579,0.020667,-0.379000,-0.345333
980874621,-0.450264,-0.074246,11.467354,-0.098991,0.036505,-0.023182,0.025000,-0.374000,-0.340667
980884622,-0.404758,-0.033530,11.417059,-0.101256,0.038770,-0.029444,0.023333,-0.375667,-0.340000
980894623,-0.364043,-0.040715,11.364368,-0.096593,0.037838,-0.026646,0.020333,-0.379000,-0.338333
980904623,-0.423918,-0.059875,11.424244,-0.100057,0.043433,-0.025314,0.020333,-0.375000,-0.342000
980914625,-0.399968,-0.064666,11.282937,-0.101789,0.039303,-0.024515,0.022333,-0.375667,-0.342000
980924625,-0.371228,-0.062271,11.345208,-0.107251,0.041168,-0.028511,0.023333,-0.375000,-0.340667
980934626,-0.495769,-0.011975,11.323653,-0.108583,0.033574,-0.028778,0.022333,-0.379000,-0.343667
980944628,-0.368833,-0.047900,11.321258,-0.105919,0.038904,-0.025714,0.020667,-0.377333,-0.342000
980954630,-0.433499,-0.095801,11.254197,-0.104587,0.038104,-0.029044,0.025000,-0.380667,-0.340000
980964630,-0.416733,-0.028740,11.381133,-0.100989,0.040369,-0.028911,0.023333,-0.377333,-0.335333
980974631,-0.376018,-0.035925,11.417059,-0.100190,0.042900,-0.025980,0.022333,-0.376667,-0.338333
980984633,-0.404758,-0.007185,11.402688,-0.101123,0.039436,-0.025181,0.023333,-0.377333,-0.338333
980994633,-0.385598,-0.045505,11.364368,-0.097659,0.037571,-0.026913,0.022333,-0.377333,-0.340000
981004635,-0.371228,0.009580,11.335628,-0.101256,0.037438,-0.026779,0.022333,-0.377333,-0.342667
981014636,-0.407153,0.028740,11.340418,-0.102988,0.035839,-0.028911,0.025000,-0.376667,-0.340667
981024636,-0.531694,-0.035925,11.314073,-0.107384,0.033974,-0.025580,0.023333,-0.375000,-0.339000
981034637,-0.373623,0.004790,11.309282,-0.107651,0.035440,-0.027179,0.020667,-0.380667,-0.339000
981044637,-0.359253,0.033530,11.328443,-0.108717,0.032109,-0.026913,0.020333,-0.376667,-0.340667
981054639,-0.364043,0.000000,11.366763,-0.105919,0.041302,-0.028245,0.019333,-0.375667,-0.339000
981064640,-0.435894,-0.035925,11.390714,-0.106185,0.038904,-0.024381,0.018667,-0.372333,-0.342667
981074640,-0.402363,-0.047900,11.405084,-0.105786,0.031576,-0.024648,0.019333,-0.378333,-0.340000
981084641,-0.373623,-0.057480,11.400293,-0.102055,0.033441,-0.028378,0.018667,-0.375667,-0.340000
981094643,-0.356858,-0.040715,11.297308,-0.100856,0.033841,-0.025980,0.021667,-0.373333,-0.338333
981104643,-0.395178,-0.026345,11.395503,-0.101256,0.033574,-0.028378,0.019333,-0.378333,-0.339000
981114644,-0.366438,0.014370,11.251802,-0.100590,0.038504,-0.025580,0.020667,-0.376667,-0.339000
981124645,-0.419128,-0.057480,11.354788,-0.098591,0.036372,-0.027046,0.025667,-0.374000,-0.336000
981134646,-0.435894,0.000000,11.390714,-0.096726,0.039436,-0.028112,0.023333,-0.375667,-0.339000
981144648,-0.376018,-0.052690,11.395503,-0.096726,0.037038,-0.025580,0.021667,-0.375000,-0.342000
981154648,-0.337698,0.021555,11.349998,-0.100057,0.036372,-0.024381,0.020333,-0.375667,-0.342667
981164650,-0.407153,-0.040715,11.366763,-0.103654,0.034640,-0.026779,0.021667,-0.375000,-0.342667
981174651,-0.380808,0.014370,11.438614,-0.103121,0.037704,-0.025447,0.019333,-0.377333,-0.342000
981184652,-0.435894,-0.009580,11.364368,-0.102055,0.037305,-0.025980,0.024000,-0.380667,-0.344333
981194653,-0.462239,-0.016765,11.333233,-0.104720,0.032775,-0.028511,0.021667,-0.377333,-0.339000
981204653,-0.479004,-0.019160,11.347603,-0.103387,0.036639,-0.025447,0.021667,-0.377333,-0.347333
981214655,-0.349673,-0.011975,11.366763,-0.105919,0.035040,-0.027312,0.019333,-0.376667,-0.346667
981224655,-0.251477,-0.026345,11.402688,-0.106452,0.035972,-0.027312,0.017667,-0.377333,-0.340000
981234656,-0.402363,-0.011975,11.352393,-0.100456,0.038904,-0.025314,0.022333,-0.372333,-0.336000
981244658,-0.402363,-0.040715,11.366763,-0.098591,0.041168,-0.030110,0.025000,-0.374000,-0.338333
981254658,-0.438289,-0.059875,11.328443,-0.100190,0.037971,-0.023982,0.021667,-0.375667,-0.344333
981264660,-0.402363,-0.011975,11.357183,-0.095260,0.038371,-0.025314,0.020333,-0.379000,-0.342000
981274662,-0.399968,-0.011975,11.390714,-0.092862,0.038637,-0.028245,0.021667,-0.376667,-0.339000
981284662,-0.344883,0.000000,11.299703,-0.096593,0.039037,-0.027446,0.020667,-0.380667,-0.338333
981294664,-0.316143,0.062271,11.340418,-0.104453,0.036372,-0.029044,0.023333,-0.377333,-0.343667
981304664,-0.416733,-0.019160,11.412269,-0.102988,0.041701,-0.027446,0.021667,-0.376667,-0.340667
981314664,-0.399968,-0.038320,11.373948,-0.111115,0.040369,-0.029577,0.022333,-0.378333,-0.343667
981324664,-0.471819,0.002395,11.306888,-0.110315,0.037172,-0.023848,0.024000,-0.372333,-0.343667
981334664,-0.486189,-0.091011,11.366763,-0.109916,0.032775,-0.026646,0.020667,-0.375000,-0.339000
981344665,-0.376018,-0.076641,11.340418,-0.105386,0.033974,-0.027446,0.018667,-0.375667,-0.342000
981354666,-0.328118,-0.038320,11.381133,-0.102721,0.031443,-0.026646,0.023333,-0.373333,-0.339000
981364666,-0.299377,-0.047900,11.397899,-0.101389,0.033974,-0.026646,0.020667,-0.378333,-0.342667
981374668,-0.325723,-0.016765,11.373948,-0.099524,0.039570,-0.024381,0.024000,-0.377333,-0.340000
981384669,-0.407153,-0.062271,11.373948,-0.102322,0.038104,-0.029711,0.020333,-0.377333,-0.338333
981394669,-0.471819,0.014370,11.452984,-0.097792,0.042101,-0.026646,0.021667,-0.375667,-0.339000
981404670,-0.416733,-0.007185,11.338023,-0.102721,0.036505,-0.028911,0.021667,-0.375667,-0.338333
981414672,-0.402363,-0.052690,11.409874,-0.099391,0.037838,-0.026380,0.020333,-0.376667,-0.339000
981424673,-0.421523,-0.043110,11.292518,-0.103254,0.034907,-0.028112,0.022333,-0.376667,-0.342000
981434675,-0.337698,-0.055085,11.275752,-0.102721,0.035839,-0.028645,0.018667,-0.372333,-0.350000
981444676,-0.399968,0.021555,11.345208,-0.105253,0.034507,-0.026646,0.024000,-0.373333,-0.342667
981454677,-0.344883,-0.069456,11.340418,-0.106319,0.034507,-0.022116,0.021667,-0.380000,-0.337333
981464678,-0.330513,0.000000,11.347603,-0.106718,0.031709,-0.027979,0.018667,-0.377333,-0.340667
981474678,-0.368833,-0.011975,11.302097,-0.102188,0.035040,-0.029844,0.021667,-0.375667,-0.340000
981484679,-0.376018,0.014370,11.371553,-0.108983,0.033041,-0.032908,0.019333,-0.380667,-0.338333
981494679,-0.423918,-0.038320,11.330838,-0.102855,0.034907,-0.026646,0.021667,-0.379000,-0.337333
981504680,-0.421523,-0.079036,11.369158,-0.102322,0.037038,-0.024781,0.020333,-0.376667,-0.338333
981514681,-0.397573,-0.033530,11.371553,-0.098858,0.035306,-0.026646,0.020667,-0.378333,-0.340667
981524682,-0.361648,-0.055085,11.361973,-0.100190,0.037438,-0.028645,0.020333,-0.377333,-0.340000
981534682,-0.359253,0.002395,11.302097,-0.099391,0.031709,-0.023715,0.023333,-0.379000,-0.340000
981544683,-0.387993,0.035925,11.333233,-0.099657,0.036239,-0.024781,0.022333,-0.380667,-0.342000
981554685,-0.404758,0.002395,11.292518,-0.100856,0.041968,-0.027046,0.024000,-0.376667,-0.342667
981564687,-0.462239,-0.014370,11.366763,-0.109649,0.040236,-0.028112,0.021667,-0.373333,-0.342667
981574688,-0.495769,-0.009580,11.338023,-0.105119,0.033441,-0.028911,0.020333,-0.375000,-0.342667
981584689,-0.419128,-0.069456,11.371553,-0.102588,0.035573,-0.024914,0.021667,-0.376667,-0.340667
981594691,-0.399968,-0.031135,11.376344,-0.104054,0.036372,-0.030377,0.025667,-0.375667,-0.345333
981604691,-0.352068,0.019160,11.472144,-0.100723,0.038104,-0.027979,0.022333,-0.374000,-0.342000
981614693,-0.385598,-0.074246,11.414663,-0.102322,0.035839,-0.026380,0.024000,-0.377333,-0.340000
981624693,-0.435894,-0.021555,11.333233,-0.098724,0.038770,-0.028645,0.020667,-0.378333,-0.339000
981634695,-0.488584,-0.074246,11.302097,-0.098724,0.037838,-0.026913,0.019333,-0.376667,-0.338333
981644697,-0.378413,-0.016765,11.390714,-0.101123,0.034240,-0.031443,0.021667,-0.372333,-0.337333
981654697,-0.313748,-0.086221,11.290123,-0.096859,0.037704,-0.026380,0.016000,-0.379000,-0.344333
981664697,-0.352068,-0.021555,11.395503,-0.098325,0.038637,-0.025181,0.019333,-0.379000,-0.346667
981674699,-0.416733,-0.007185,11.287727,-0.098724,0.040103,-0.025714,0.020333,-0.375667,-0.340667
981684699,-0.407153,-0.014370,11.436219,-0.100723,0.037305,-0.028778,0.019333,-0.380000,-0.348333
981694700,-0.443079,0.019160,11.266172,-0.098858,0.038104,-0.028245,0.022333,-0.380667,-0.342000
981704701,-0.459844,0.009580,11.433824,-0.104453,0.038904,-0.026113,0.022333,-0.372333,-0.338333
981714702,-0.402363,-0.038320,11.359578,-0.102855,0.037172,-0.029444,0.023333,-0.375667,-0.339000
981724702,-0.354463,-0.033530,11.527229,-0.103521,0.039703,-0.027579,0.017000,-0.376667,-0.342000
981734703,-0.435894,0.043110,11.383529,-0.101389,0.035839,-0.024781,0.019333,-0.375000,-0.338333
981744705,-0.438289,-0.019160,11.431429,-0.100856,0.035440,-0.024381,0.021667,-0.373333,-0.337333
981754705,-0.404758,-0.062271,11.282937,-0.099391,0.031443,-0.027179,0.019333,-0.373333,-0.345333
981764705,-0.471819,-0.052690,11.400293,-0.101922,0.031176,-0.029044,0.020667,-0.375000,-0.343667
981774707,-0.352068,-0.004790,11.340418,-0.101123,0.032375,-0.028245,0.020333,-0.375667,-0.345333
981784708,-0.431104,-0.047900,11.436219,-0.097259,0.037172,-0.025980,0.020333,-0.378333,-0.342667
981794709,-0.378413,-0.028740,11.383529,-0.101123,0.035440,-0.027046,0.021667,-0.377333,-0.340000
981804710,-0.419128,-0.028740,11.292518,-0.102855,0.037571,-0.029844,0.022333,-0.375667,-0.342667
981814711,-0.486189,-0.007185,11.314073,-0.103121,0.032908,-0.026247,0.020333,-0.370667,-0.343667
981824712,-0.452659,-0.050295,11.297308,-0.104054,0.033441,-0.027046,0.022333,-0.375000,-0.345333
981834713,-0.328118,-0.064666,11.232642,-0.106585,0.032242,-0.027712,0.022333,-0.378333,-0.345333
981844713,-0.349673,0.007185,11.316468,-0.100989,0.031975,-0.028645,0.023333,-0.379000,-0.343667
981854714,-0.364043,-0.057480,11.335628,-0.103521,0.041302,-0.025580,0.023333,-0.379000,-0.339000
981864715,-0.390388,-0.028740,11.304493,-0.104587,0.042101,-0.026113,0.020667,-0.378333,-0.342000
981874715,-0.409548,-0.064666,11.316468,-0.101922,0.038237,-0.026247,0.020667,-0.377333,-0.342667
981884716,-0.411943,-0.079036,11.397899,-0.100323,0.040369,-0.028245,0.022333,-0.376667,-0.343667
981894716,-0.378413,0.016765,11.371553,-0.099391,0.039969,-0.025580,0.020333,-0.380000,-0.349000
981904717,-0.397573,-0.007185,11.371553,-0.098325,0.040636,-0.027446,0.027333,-0.376667,-0.340667
981914717,-0.323328,-0.076641,11.314073,-0.100989,0.037838,-0.030243,0.020333,-0.380667,-0.339000
981924718,-0.397573,-0.026345,11.330838,-0.098858,0.043433,-0.026113,0.025000,-0.376667,-0.344333
981934718,-0.414338,-0.026345,11.299703,-0.101256,0.040236,-0.027312,0.021667,-0.371667,-0.342000
981944720,-0.414338,0.002395,11.338023,-0.103254,0.041168,-0.029977,0.021667,-0.376667,-0.336000
981954722,-0.455054,-0.009580,11.371553,-0.104720,0.038371,-0.027579,0.024000,-0.378333,-0.340667
981964722,-0.505349,-0.019160,11.421848,-0.104187,0.040103,-0.029577,0.022333,-0.375667,-0.342667
981974722,-0.452659,-0.011975,11.349998,-0.106585,0.037838,-0.025980,0.020333,-0.378333,-0.343667
981984722,-0.419128,-0.074246,11.304493,-0.105386,0.031043,-0.027712,0.022333,-0.374000,-0.338333
981994723,-0.476609,-0.081431,11.383529,-0.102855,0.035972,-0.028778,0.020667,-0.371667,-0.340000
982004725,-0.352068,-0.067061,11.361973,-0.096726,0.036772,-0.026779,0.022333,-0.378333,-0.343667
982014725,-0.428709,-0.047900,11.383529,-0.098191,0.033175,-0.030110,0.020333,-0.377333,-0.345333
982024726,-0.411943,-0.055085,11.385923,-0.098458,0.034240,-0.025580,0.020333,-0.375667,-0.340667
982034728,-0.404758,-0.069456,11.395503,-0.098591,0.036239,-0.031975,0.020667,-0.377333,-0.340000
982044730,-0.404758,0.023950,11.302097,-0.095260,0.041568,-0.028511,0.021667,-0.375000,-0.343667
982054732,-0.385598,-0.014370,11.237432,-0.098991,0.040636,-0.026380,0.021667,-0.374000,-0.346667
982064732,-0.407153,0.033530,11.318863,-0.103521,0.043167,-0.032775,0.022333,-0.374000,-0.344333
982074732,-0.450264,0.009580,11.244617,-0.101789,0.039969,-0.029044,0.021667,-0.375667,-0.344333
982084734,-0.467029,-0.009580,11.438614,-0.107651,0.040369,-0.028645,0.021667,-0.374000,-0.340667
982094736,-0.481399,-0.040715,11.330838,-0.106052,0.040103,-0.030110,0.021667,-0.372333,-0.338333
982104738,-0.471819,-0.047900,11.390714,-0.105119,0.036239,-0.028511,0.019333,-0.375667,-0.340667
982114739,-0.421523,-0.047900,11.464959,-0.105652,0.033175,-0.029311,0.025000,-0.378333,-0.343667
982124739,-0.416733,-0.064666,11.330838,-0.103920,0.034374,-0.028778,0.022333,-0.375667,-0.342000
982134740,-0.352068,-0.011975,11.378738,-0.105519,0.035972,-0.028378,0.022333,-0.378333,-0.346667
982144740,-0.409548,-0.031135,11.330838,-0.107651,0.033974,-0.026779,0.020667,-0.373333,-0.342667
982154740,-0.483794,-0.014370,11.333233,-0.107251,0.033574,-0.027312,0.019333,-0.373333,-0.344333
982164741,-0.443079,-0.114961,11.328443,-0.106319,0.034907,-0.030110,0.023333,-0.376667,-0.344333
982174741,-0.368833,-0.043110,11.364368,-0.105253,0.031842,-0.029844,0.020667,-0.376667,-0.343667
982184741,-0.368833,-0.016765,11.381133,-0.101789,0.037305,-0.025714,0.027333,-0.377333,-0.342000
982194742,-0.373623,-0.062271,11.369158,-0.102855,0.032508,-0.028645,0.025000,-0.378333,-0.340000
982204743,-0.452659,-0.004790,11.349998,-0.103920,0.033974,-0.026646,0.028333,-0.375667,-0.340667
982214744,-0.455054,-0.023950,11.364368,-0.106452,0.030110,-0.027179,0.025000,-0.374000,-0.342667
982224746,-0.407153,-0.052690,11.371553,-0.106185,0.032908,-0.026779,0.020667,-0.377333,-0.340667
982234746,-0.385598,-0.014370,11.349998,-0.109649,0.034107,-0.029977,0.025000,-0.376667,-0.335333
982244746,-0.450264,-0.057480,11.290123,-0.106185,0.033041,-0.028378,0.025000,-0.380667,-0.340000
982254748,-0.387993,-0.014370,11.383529,-0.103387,0.034240,-0.029178,0.025667,-0.375000,-0.343667
982264749,-0.383203,-0.059875,11.361973,-0.105519,0.032242,-0.027579,0.023333,-0.374000,-0.342667
982274750,-0.423918,-0.062271,11.323653,-0.095394,0.036639,-0.030243,0.020667,-0.377333,-0.344333
982284751,-0.392783,-0.038320,11.385923,-0.100590,0.036772,-0.029311,0.020667,-0.375667,-0.346667
982294751,-0.387993,-0.045505,11.390714,-0.102322,0.039570,-0.027312,0.023333,-0.375667,-0.344333
982304753,-0.385598,-0.047900,11.333233,-0.104720,0.035440,-0.025980,0.021667,-0.374000,-0.340000
982314755,-0.359253,0.023950,11.342813,-0.104587,0.041701,-0.027712,0.022333,-0.373333,-0.342000
982324755,-0.443079,-0.007185,11.285333,-0.102988,0.040636,-0.030377,0.021667,-0.377333,-0.340000
982334757,-0.416733,-0.052690,11.393108,-0.104054,0.043167,-0.025580,0.020667,-0.380667,-0.340000
982344759,-0.399968,-0.091011,11.373948,-0.102055,0.042501,-0.030243,0.021667,-0.380000,-0.342667
982354760,-0.383203,-0.047900,11.366763,-0.100323,0.042634,-0.027446,0.023333,-0.372333,-0.335333
982364760,-0.426313,-0.055085,11.354788,-0.094994,0.039703,-0.031176,0.021667,-0.373333,-0.345333
982374761,-0.404758,-0.004790,11.338023,-0.100590,0.043300,-0.028645,0.021667,-0.376667,-0.338333
982384763,-0.438289,-0.009580,11.321258,-0.098991,0.040502,-0.026380,0.023333,-0.375000,-0.340000
982394763,-0.330513,0.009580,11.335628,-0.100456,0.039170,-0.027312,0.025000,-0.380000,-0.342000
982404764,-0.385598,0.043110,11.297308,-0.101123,0.039303,-0.025847,0.019333,-0.374000,-0.338333
982414765,-0.426313,0.062271,11.359578,-0.097659,0.046098,-0.025847,0.024000,-0.373333,-0.339000
982424765,-0.443079,-0.016765,11.409874,-0.103521,0.040103,-0.027046,0.019333,-0.378333,-0.339000
982434765,-0.474214,-0.069456,11.381133,-0.102055,0.038237,-0.029444,0.021667,-0.378333,-0.337333
982444766,-0.450264,-0.050295,11.417059,-0.100456,0.034773,-0.028378,0.022333,-0.376667,-0.333667
982454767,-0.419128,0.009580,11.258987,-0.106851,0.033308,-0.029044,0.023333,-0.379000,-0.342000
982464769,-0.387993,0.028740,11.352393,-0.106585,0.033441,-0.027579,0.023333,-0.378333,-0.337333
982474771,-0.352068,0.009580,11.414663,-0.108717,0.031709,-0.029977,0.018667,-0.380000,-0.342667
982484773,-0.416733,-0.062271,11.282937,-0.105652,0.033041,-0.027179,0.021667,-0.375667,-0.340000
982495585,-0.399968,-0.031135,11.314073,-0.105652,0.035440,-0.027312,0.024000,-0.372333,-0.340000
982505586,-0.462239,-0.028740,11.381133,-0.104720,0.036772,-0.028511,0.023333,-0.375667,-0.338333
982515586,-0.443079,-0.052690,11.338023,-0.103121,0.033841,-0.028911,0.019333,-0.374000,-0.343667
982525587,-0.450264,-0.047900,11.258987,-0.101789,0.033708,-0.028911,0.021667,-0.375667,-0.340000
982535588,-0.378413,-0.028740,11.306888,-0.100456,0.036106,-0.027712,0.020667,-0.374000,-0.338333
982545589,-0.426313,-0.021555,11.251802,-0.103121,0.032775,-0.024115,0.020667,-0.375667,-0.338333
982555591,-0.411943,-0.050295,11.361973,-0.106052,0.035306,-0.027845,0.018667,-0.375667,-0.340667
982565592,-0.385598,0.000000,11.369158,-0.105786,0.034107,-0.030510,0.025000,-0.374000,-0.338333
982575593,-0.414338,0.014370,11.294912,-0.103920,0.034240,-0.025980,0.021667,-0.375000,-0.338333
982585595,-0.390388,-0.083826,11.366763,-0.109116,0.037438,-0.025847,0.022333,-0.376667,-0.339000
982595596,-0.368833,-0.055085,11.292518,-0.104853,0.036106,-0.025580,0.022333,-0.375000,-0.342000
982605596,-0.469424,-0.043110,11.383529,-0.100323,0.035440,-0.023049,0.021667,-0.374000,-0.340667
982615597,-0.452659,-0.064666,11.407478,-0.104187,0.034640,-0.025181,0.021667,-0.374000,-0.338333
982625598,-0.397573,-0.023950,11.268567,-0.099923,0.036639,-0.029711,0.024000,-0.378333,-0.340000
982635599,-0.428709,-0.043110,11.316468,-0.102322,0.033308,-0.026247,0.024000,-0.375667,-0.340000
982645600,-0.421523,-0.007185,11.314073,-0.100856,0.035573,-0.027579,0.025667,-0.375000,-0.342000
982655600,-0.318538,-0.088616,11.287727,-0.101789,0.036772,-0.026247,0.021667,-0.375000,-0.340667
982665601,-0.428709,-0.064666,11.347603,-0.100723,0.039836,-0.026779,0.022333,-0.375000,-0.335333
982675602,-0.368833,0.004790,11.357183,-0.103521,0.042501,-0.029044,0.025000,-0.374000,-0.334333
982685604,-0.383203,0.002395,11.364368,-0.104453,0.039303,-0.027046,0.021667,-0.377333,-0.343667
982695606,-0.457449,-0.023950,11.364368,-0.100590,0.041302,-0.026513,0.020667,-0.374000,-0.344333
982705607,-0.479004,0.002395,11.318863,-0.103121,0.038904,-0.026779,0.025000,-0.376667,-0.340667
982715607,-0.423918,-0.067061,11.371553,-0.102588,0.036372,-0.028511,0.022333,-0.377333,-0.345333
982725609,-0.462239,-0.064666,11.364368,-0.102588,0.034907,-0.027579,0.022333,-0.377333,-0.340667
982735609,-0.385598,0.004790,11.373948,-0.102055,0.035306,-0.027579,0.020333,-0.380000,-0.342000
982745609,-0.376018,-0.035925,11.366763,-0.101256,0.031576,-0.026113,0.019333,-0.379000,-0.343667
982755610,-0.371228,-0.050295,11.285333,-0.101389,0.037704,-0.026113,0.023333,-0.376667,-0.342000
982765610,-0.354463,-0.062271,11.249407,-0.099923,0.041302,-0.027446,0.021667,-0.376667,-0.342000
982775610,-0.359253,-0.067061,11.280542,-0.095793,0.044100,-0.027179,0.021667,-0.378333,-0.342000
982785610,-0.431104,-0.016765,11.354788,-0.098724,0.040236,-0.026646,0.023333,-0.375000,-0.340667
982795612,-0.440684,-0.035925,11.395503,-0.096859,0.041302,-0.026513,0.023333,-0.380667,-0.340000
982805614,-0.570015,0.035925,11.373948,-0.099391,0.034640,-0.029044,0.019333,-0.375667,-0.342000
982815615,-0.402363,-0.028740,11.326048,-0.103521,0.035573,-0.026913,0.022333,-0.372333,-0.342667
982825615,-0.380808,0.035925,11.247012,-0.105652,0.032508,-0.030243,0.021667,-0.376667,-0.344333
982835616,-0.340093,0.035925,11.361973,-0.108583,0.034107,-0.027845,0.020333,-0.374000,-0.340000
982845617,-0.359253,-0.045505,11.376344,-0.107651,0.036905,-0.029577,0.021667,-0.376667,-0.343667
982855618,-0.301772,-0.050295,11.263778,-0.109383,0.038104,-0.026380,0.020333,-0.379000,-0.342000
982865618,-0.467029,-0.057480,11.364368,-0.110182,0.037305,-0.028911,0.019333,-0.375000,-0.338333
982875618,-0.435894,-0.040715,11.290123,-0.105919,0.035573,-0.027046,0.018667,-0.377333,-0.339000
982885618,-0.447869,-0.050295,11.390714,-0.106851,0.034374,-0.025980,0.022333,-0.380000,-0.345333
982895620,-0.500559,-0.069456,11.409874,-0.103521,0.034374,-0.029178,0.023333,-0.378333,-0.345333
982905621,-0.364043,-0.059875,11.369158,-0.102322,0.033308,-0.026913,0.019333,-0.376667,-0.342000
982915621,-0.299377,-0.021555,11.333233,-0.098591,0.033841,-0.026113,0.020333,-0.375667,-0.340667
982925621,-0.376018,-0.040715,11.223062,-0.099923,0.035306,-0.029311,0.019333,-0.374000,-0.345333
982935622,-0.361648,-0.016765,11.414663,-0.104853,0.032508,-0.026779,0.021667,-0.375667,-0.339000
982945623,-0.378413,0.009580,11.299703,-0.103254,0.033841,-0.027845,0.022333,-0.377333,-0.338333
982955624,-0.455054,-0.021555,11.402688,-0.100989,0.040103,-0.027979,0.020667,-0.377333,-0.340667
982965625,-0.364043,-0.009580,11.318863,-0.100856,0.035706,-0.026513,0.024000,-0.380000,-0.334333
982975625,-0.423918,-0.021555,11.395503,-0.103387,0.038371,-0.027179,0.021667,-0.376667,-0.342000
982985625,-0.498164,0.014370,11.393108,-0.102721,0.037438,-0.025980,0.022333,-0.374000,-0.339000
982995626,-0.411943,0.002395,11.282937,-0.105253,0.034374,-0.029577,0.021667,-0.376667,-0.338333
983005628,-0.368833,-0.035925,11.273357,-0.106452,0.034773,-0.028645,0.024000,-0.375000,-0.348333
983015628,-0.328118,-0.038320,11.270963,-0.103920,0.033974,-0.029844,0.018667,-0.372333,-0.342667
983025630,-0.371228,-0.031135,11.299703,-0.103654,0.035173,-0.025447,0.017000,-0.378333,-0.346667
983035631,-0.349673,-0.062271,11.400293,-0.100456,0.038104,-0.028511,0.020667,-0.375000,-0.342000
983045633,-0.414338,-0.059875,11.345208,-0.103787,0.033574,-0.027046,0.023333,-0.373333,-0.343667
983055635,-0.359253,-0.050295,11.294912,-0.101256,0.033441,-0.026513,0.021667,-0.375000,-0.343667
983065635,-0.352068,-0.004790,11.294912,-0.100057,0.037971,-0.027712,0.022333,-0.377333,-0.342667
983075635,-0.428709,-0.045505,11.426639,-0.099257,0.036772,-0.024914,0.020667,-0.377333,-0.342667
983085635,-0.383203,0.014370,11.326048,-0.101389,0.037038,-0.028245,0.020667,-0.370000,-0.342000
983095637,-0.471819,-0.019160,11.330838,-0.100456,0.038770,-0.028245,0.023333,-0.371667,-0.338333
983105638,-0.402363,-0.009580,11.294912,-0.102322,0.039969,-0.028245,0.021667,-0.377333,-0.342667
983115640,-0.407153,-0.009580,11.464959,-0.101922,0.038237,-0.028645,0.021667,-0.375667,-0.337333
983125641,-0.340093,-0.086221,11.342813,-0.101789,0.039037,-0.025980,0.019333,-0.380000,-0.342667
983135642,-0.421523,-0.098196,11.438614,-0.102188,0.036372,-0.026380,0.023333,-0.376667,-0.345333
983145643,-0.409548,-0.062271,11.340418,-0.098858,0.037305,-0.026513,0.022333,-0.377333,-0.344333
983155645,-0.455054,-0.011975,11.371553,-0.104453,0.034773,-0.031043,0.023333,-0.375667,-0.345333
983165645,-0.361648,-0.026345,11.376344,-0.101522,0.034640,-0.026779,0.025667,-0.376667,-0.342667
983175645,-0.340093,0.007185,11.417059,-0.102055,0.043300,-0.027046,0.020667,-0.374000,-0.340667
983185645,-0.455054,0.004790,11.373948,-0.100456,0.044899,-0.026113,0.021667,-0.370667,-0.342667
983195647,-0.483794,-0.059875,11.345208,-0.099657,0.043567,-0.027312,0.020667,-0.377333,-0.344333
983205647,-0.447869,-0.045505,11.270963,-0.099790,0.036772,-0.027312,0.020667,-0.377333,-0.339000
983215647,-0.431104,-0.043110,11.352393,-0.101655,0.036639,-0.028778,0.020667,-0.379000,-0.336000
983225647,-0.387993,-0.016765,11.412269,-0.103387,0.035306,-0.026113,0.025000,-0.380000,-0.342000
983235648,-0.416733,-0.016765,11.311678,-0.105119,0.035173,-0.026513,0.024000,-0.381667,-0.342667
983245649,-0.395178,-0.074246,11.306888,-0.104453,0.038237,-0.029577,0.023333,-0.379000,-0.342000
983255649,-0.402363,-0.009580,11.402688,-0.105786,0.036639,-0.028911,0.019333,-0.376667,-0.342667
983265649,-0.385598,-0.071851,11.361973,-0.108583,0.037305,-0.024781,0.025667,-0.375000,-0.342000
983275650,-0.452659,-0.064666,11.340418,-0.103254,0.034640,-0.029311,0.026667,-0.375667,-0.340667
983285652,-0.364043,-0.040715,11.381133,-0.102055,0.038237,-0.024648,0.018667,-0.372333,-0.342000
983295652,-0.414338,-0.031135,11.335628,-0.100590,0.038504,-0.026247,0.020667,-0.372333,-0.343667
983305652,-0.440684,-0.040715,11.292518,-0.101655,0.037038,-0.027579,0.020333,-0.378333,-0.340000
983315654,-0.471819,-0.014370,11.402688,-0.100190,0.031975,-0.029178,0.021667,-0.377333,-0.340000
983325656,-0.402363,-0.009580,11.340418,-0.104587,0.031443,-0.028112,0.021667,-0.378333,-0.339000
983335656,-0.409548,0.002395,11.378738,-0.105386,0.030910,-0.026380,0.027333,-0.377333,-0.338333
983345656,-0.421523,0.000000,11.309282,-0.106185,0.034907,-0.024515,0.026667,-0.375667,-0.342000
983355656,-0.340093,-0.076641,11.354788,-0.108317,0.034773,-0.025847,0.023333,-0.375667,-0.342000
983365656,-0.409548,-0.110171,11.364368,-0.105119,0.033841,-0.029444,0.023333,-0.376667,-0.340667
983375657,-0.416733,-0.011975,11.302097,-0.103387,0.034773,-0.030776,0.022333,-0.372333,-0.338333
983385659,-0.366438,-0.052690,11.345208,-0.100456,0.035972,-0.027712,0.022333,-0.375667,-0.339000
983395660,-0.328118,-0.014370,11.361973,-0.099391,0.033974,-0.027179,0.027333,-0.374000,-0.336000
983405661,-0.416733,-0.026345,11.249407,-0.101655,0.031576,-0.025047,0.022333,-0.376667,-0.339000
983415662,-0.399968,-0.031135,11.326048,-0.098058,0.039703,-0.027712,0.018667,-0.378333,-0.340667
983425663,-0.426313,-0.043110,11.282937,-0.104320,0.039037,-0.027446,0.021667,-0.378333,-0.342000
983435663,-0.445474,-0.031135,11.340418,-0.102188,0.040769,-0.025047,0.026667,-0.375667,-0.340667
983445663,-0.416733,-0.038320,11.388318,-0.100456,0.037038,-0.028645,0.024000,-0.374000,-0.344333
983455665,-0.387993,-0.026345,11.395503,-0.097925,0.040636,-0.025714,0.025000,-0.378333,-0.338333
983465665,-0.428709,-0.067061,11.369158,-0.102322,0.039570,-0.027312,0.022333,-0.374000,-0.340667
983475666,-0.392783,-0.007185,11.395503,-0.100723,0.039703,-0.026247,0.025000,-0.373333,-0.338333
983485668,-0.419128,0.009580,11.407478,-0.102855,0.036372,-0.026513,0.021667,-0.377333,-0.342000
983495668,-0.474214,-0.059875,11.318863,-0.099790,0.034907,-0.025580,0.021667,-0.379000,-0.342000
983505668,-0.440684,-0.031135,11.347603,-0.103654,0.036772,-0.026247,0.020333,-0.375000,-0.339000
983515670,-0.383203,0.021555,11.251802,-0.105519,0.034507,-0.026380,0.025667,-0.376667,-0.342667
983525672,-0.380808,-0.040715,11.361973,-0.106185,0.036639,-0.028112,0.022333,-0.381667,-0.342000
983535673,-0.404758,-0.019160,11.323653,-0.103787,0.037704,-0.027579,0.026667,-0.378333,-0.338333
983545674,-0.404758,-0.035925,11.429033,-0.102455,0.038504,-0.025847,0.024000,-0.377333,-0.337333
983555674,-0.344883,-0.052690,11.373948,-0.100590,0.037438,-0.027845,0.020667,-0.377333,-0.338333
983565676,-0.368833,-0.067061,11.385923,-0.099790,0.035306,-0.027046,0.020667,-0.380000,-0.340667
983575678,-0.431104,-0.050295,11.359578,-0.101123,0.036905,-0.023848,0.017000,-0.376667,-0.342000
983585679,-0.404758,-0.050295,11.345208,-0.099257,0.036106,-0.026646,0.021667,-0.375667,-0.342000
983595679,-0.479004,-0.007185,11.385923,-0.101789,0.031709,-0.026779,0.020667,-0.375000,-0.342000
983605679,-0.395178,-0.014370,11.381133,-0.100856,0.031309,-0.029178,0.021667,-0.377333,-0.340667
983615680,-0.368833,-0.016765,11.376344,-0.104853,0.032109,-0.027979,0.025667,-0.379000,-0.333667
983625682,-0.349673,0.028740,11.357183,-0.103920,0.033841,-0.023315,0.024000,-0.375000,-0.339000
983635682,-0.385598,-0.021555,11.385923,-0.108317,0.037571,-0.027712,0.024000,-0.374000,-0.343667
983645683,-0.407153,-0.035925,11.294912,-0.108317,0.033708,-0.024381,0.024000,-0.375000,-0.342667
983655684,-0.409548,-0.100591,11.349998,-0.107518,0.036772,-0.028511,0.021667,-0.375000,-0.338333
983665685,-0.397573,-0.050295,11.381133,-0.101789,0.041035,-0.025980,0.025667,-0.374000,-0.338333
983675686,-0.397573,-0.045505,11.357183,-0.099257,0.034374,-0.029977,0.023333,-0.373333,-0.340000
983685686,-0.337698,-0.028740,11.270963,-0.101789,0.033308,-0.025714,0.025000,-0.373333,-0.342000
983695688,-0.395178,-0.028740,11.373948,-0.101256,0.033441,-0.030910,0.021667,-0.371667,-0.342000
983705690,-0.378413,-0.091011,11.366763,-0.099657,0.033041,-0.026913,0.021667,-0.376667,-0.340667
983715690,-0.352068,-0.040715,11.321258,-0.099391,0.038104,-0.023449,0.022333,-0.376667,-0.340000
983725690,-0.354463,-0.016765,11.414663,-0.102188,0.037704,-0.025314,0.024000,-0.378333,-0.340000
983735691,-0.397573,-0.009580,11.405084,-0.099657,0.040236,-0.028245,0.020667,-0.375667,-0.338333
983745691,-0.397573,-0.021555,11.333233,-0.102588,0.038504,-0.028645,0.017667,-0.377333,-0.343667
983755692,-0.490979,0.014370,11.405084,-0.105119,0.040236,-0.025980,0.023333,-0.375000,-0.338333
983765693,-0.455054,0.009580,11.376344,-0.106851,0.035839,-0.024115,0.022333,-0.376667,-0.332667
983775694,-0.352068,-0.047900,11.412269,-0.107917,0.034374,-0.026779,0.023333,-0.374000,-0.340667
983785696,-0.390388,-0.035925,11.409874,-0.109250,0.031709,-0.025447,0.017667,-0.375000,-0.338333
983795698,-0.416733,-0.071851,11.285333,-0.102322,0.035839,-0.026646,0.018667,-0.377333,-0.338333
983805698,-0.426313,0.011975,11.306888,-0.104453,0.036372,-0.026913,0.020333,-0.376667,-0.342000
983815698,-0.416733,-0.052690,11.426639,-0.101522,0.035706,-0.025980,0.025000,-0.374000,-0.340000
983825700,-0.419128,-0.064666,11.270963,-0.100856,0.033574,-0.025580,0.024000,-0.374000,-0.337333
983835701,-0.347278,-0.062271,11.299703,-0.099524,0.030910,-0.025047,0.023333,-0.376667,-0.338333
983845702,-0.311353,-0.023950,11.306888,-0.103387,0.033441,-0.026779,0.021667,-0.370667,-0.340000
983855702,-0.368833,0.009580,11.357183,-0.106851,0.032775,-0.025714,0.020333,-0.377333,-0.340000
983865703,-0.359253,0.000000,11.316468,-0.109649,0.031709,-0.027046,0.018667,-0.379000,-0.340000
983875703,-0.423918,-0.016765,11.381133,-0.113113,0.034640,-0.024381,0.021667,-0.380000,-0.339000
983885705,-0.409548,-0.014370,11.385923,-0.108583,0.029844,-0.024515,0.025667,-0.375000,-0.337333
983895707,-0.474214,-0.052690,11.342813,-0.107651,0.031576,-0.023848,0.021667,-0.376667,-0.339000
983905708,-0.488584,-0.102986,11.438614,-0.105519,0.034907,-0.024515,0.020667,-0.374000,-0.342000
983915710,-0.335303,-0.100591,11.347603,-0.101789,0.030377,-0.026113,0.020667,-0.379000,-0.335333
983925712,-0.402363,-0.062271,11.412269,-0.099657,0.029577,-0.027979,0.025667,-0.374000,-0.335333
983935712,-0.304167,-0.050295,11.373948,-0.096992,0.030510,-0.028911,0.021667,-0.378333,-0.337333
983945713,-0.366438,-0.045505,11.484119,-0.100723,0.033441,-0.026247,0.022333,-0.379000,-0.340667
983955714,-0.277822,-0.062271,11.393108,-0.100323,0.038770,-0.028245,0.020667,-0.375667,-0.337333
983965714,-0.292192,-0.047900,11.280542,-0.099257,0.038770,-0.022116,0.023333,-0.376667,-0.337333
983975715,-0.313748,0.002395,11.304493,-0.101655,0.038504,-0.024381,0.020333,-0.377333,-0.338333
983985715,-0.402363,-0.011975,11.316468,-0.098458,0.040236,-0.023982,0.020667,-0.374000,-0.346667
983995717,-0.385598,-0.004790,11.383529,-0.098858,0.044499,-0.027712,0.019333,-0.375667,-0.345333
984005718,-0.447869,-0.014370,11.366763,-0.100057,0.038504,-0.027179,0.020333,-0.377333,-0.340000
984015719,-0.519719,0.000000,11.326048,-0.102988,0.034773,-0.023449,0.025000,-0.374000,-0.342000
984025719,-0.507744,-0.028740,11.383529,-0.105519,0.035573,-0.024248,0.020667,-0.375000,-0.340667
984035720,-0.419128,-0.076641,11.302097,-0.105386,0.036905,-0.025714,0.022333,-0.377333,-0.335333
984045721,-0.368833,-0.016765,11.323653,-0.105786,0.035306,-0.023182,0.021667,-0.376667,-0.337333
984055721,-0.328118,-0.045505,11.328443,-0.100590,0.037571,-0.026913,0.021667,-0.378333,-0.340667
984065721,-0.328118,0.000000,11.326048,-0.100456,0.037571,-0.025181,0.025667,-0.376667,-0.342667
984075721,-0.366438,-0.019160,11.366763,-0.098191,0.041701,-0.024381,0.024000,-0.378333,-0.347333
984085721,-0.450264,-0.019160,11.239827,-0.098724,0.040103,-0.026247,0.020333,-0.373333,-0.340667
984095723,-0.469424,0.004790,11.345208,-0.101522,0.039436,-0.029044,0.022333,-0.375667,-0.340000
984105723,-0.476609,-0.011975,11.345208,-0.102055,0.033974,-0.027845,0.020333,-0.375000,-0.336000
984115724,-0.462239,-0.035925,11.323653,-0.104187,0.030110,-0.023848,0.019333,-0.372333,-0.339000
984125724,-0.438289,-0.031135,11.385923,-0.105386,0.028778,-0.025181,0.020667,-0.376667,-0.342000
984135724,-0.402363,-0.055085,11.270963,-0.104587,0.032508,-0.026646,0.020333,-0.373333,-0.343667
984145726,-0.383203,-0.009580,11.452984,-0.104986,0.036639,-0.025847,0.019333,-0.370000,-0.340000
984155726,-0.318538,-0.011975,11.318863,-0.105519,0.033441,-0.027712,0.024000,-0.373333,-0.342000
984165726,-0.332908,-0.059875,11.364368,-0.099524,0.036239,-0.024248,0.020333,-0.375667,-0.342667
984175728,-0.359253,-0.021555,11.388318,-0.101655,0.039836,-0.025047,0.022333,-0.372333,-0.342000
984185729,-0.414338,0.021555,11.383529,-0.101522,0.036239,-0.024381,0.023333,-0.379000,-0.342667
984195730,-0.474214,-0.045505,11.299703,-0.105786,0.037038,-0.028511,0.021667,-0.376667,-0.340000
984205731,-0.467029,0.002395,11.409874,-0.104453,0.034374,-0.026113,0.024000,-0.375000,-0.340000
984215733,-0.423918,-0.045505,11.366763,-0.105519,0.033974,-0.027046,0.022333,-0.380000,-0.342667
984225735,-0.328118,-0.076641,11.397899,-0.102455,0.036106,-0.027446,0.020667,-0.374000,-0.342667
984235736,-0.431104,-0.028740,11.381133,-0.105919,0.037838,-0.027446,0.020667,-0.378333,-0.338333
984245736,-0.426313,-0.088616,11.388318,-0.099923,0.041835,-0.023982,0.021667,-0.375000,-0.338333
984255736,-0.376018,-0.031135,11.395503,-0.098458,0.037571,-0.027845,0.022333,-0.376667,-0.334333
984265737,-0.443079,-0.047900,11.378738,-0.102588,0.037038,-0.028778,0.023333,-0.375000,-0.340667
984275738,-0.426313,-0.062271,11.333233,-0.095260,0.040103,-0.025047,0.023333,-0.375000,-0.344333
984285739,-0.435894,-0.004790,11.354788,-0.096060,0.039303,-0.024914,0.026667,-0.372333,-0.342000
984295739,-0.378413,-0.040715,11.340418,-0.099124,0.037571,-0.024648,0.024000,-0.374000,-0.340667
984305739,-0.416733,-0.059875,11.345208,-0.097925,0.036106,-0.028378,0.024000,-0.375667,-0.340000
984315740,-0.423918,-0.004790,11.395503,-0.099923,0.037172,-0.023582,0.023333,-0.375000,-0.338333
984325741,-0.407153,-0.035925,11.441009,-0.099124,0.032908,-0.025314,0.021667,-0.377333,-0.342667
984335742,-0.380808,-0.007185,11.306888,-0.103787,0.039436,-0.029311,0.017000,-0.375000,-0.337333
984345742,-0.445474,-0.067061,11.464959,-0.100057,0.036372,-0.029178,0.022333,-0.372333,-0.337333
984355742,-0.352068,-0.011975,11.393108,-0.100856,0.038504,-0.026247,0.020333,-0.373333,-0.337333
984365742,-0.385598,-0.002395,11.424244,-0.103387,0.035839,-0.026380,0.022333,-0.377333,-0.330667
984375742,-0.500559,0.028740,11.388318,-0.102721,0.039570,-0.026113,0.023333,-0.378333,-0.337333
984385742,-0.438289,0.016765,11.328443,-0.100856,0.036905,-0.027979,0.023333,-0.375667,-0.337333
984395743,-0.399968,-0.038320,11.316468,-0.098858,0.035839,-0.026513,0.025000,-0.379000,-0.337333
984405745,-0.366438,-0.004790,11.390714,-0.103787,0.037305,-0.027712,0.027333,-0.375000,-0.339000
984415747,-0.344883,-0.088616,11.318863,-0.106319,0.035706,-0.027179,0.022333,-0.374000,-0.334333
984425748,-0.404758,-0.069456,11.373948,-0.105119,0.039170,-0.029044,0.025000,-0.375000,-0.335333
984435748,-0.455054,-0.083826,11.388318,-0.105652,0.038904,-0.027046,0.020667,-0.374000,-0.335333
984445749,-0.385598,-0.011975,11.287727,-0.104187,0.034907,-0.031043,0.017667,-0.370667,-0.335333
984455750,-0.352068,-0.112566,11.352393,-0.100856,0.032508,-0.025447,0.021667,-0.370000,-0.335333
984465750,-0.323328,-0.038320,11.340418,-0.101256,0.035573,-0.026380,0.020333,-0.377333,-0.340000
984475750,-0.337698,-0.052690,11.326048,-0.096726,0.040103,-0.027712,0.023333,-0.375667,-0.337333
984485750,-0.361648,-0.064666,11.345208,-0.098458,0.041168,-0.025181,0.019333,-0.375667,-0.339000
984496585,-0.467029,-0.021555,11.429033,-0.100989,0.040236,-0.024115,0.026667,-0.375000,-0.338333
984506586,-0.462239,0.028740,11.335628,-0.098991,0.036639,-0.026513,0.021667,-0.375000,-0.343667
984516587,-0.361648,-0.009580,11.345208,-0.104320,0.035440,-0.027979,0.022333,-0.376667,-0.340000
984526588,-0.414338,0.007185,11.235037,-0.100590,0.039170,-0.028112,0.023333,-0.371667,-0.337333
984536589,-0.409548,-0.033530,11.448194,-0.102855,0.037971,-0.025447,0.020333,-0.376667,-0.342000
984546590,-0.356858,-0.040715,11.388318,-0.106052,0.037438,-0.027579,0.019333,-0.371667,-0.339000
984556592,-0.385598,-0.098196,11.282937,-0.108850,0.032775,-0.023315,0.022333,-0.373333,-0.339000
984566592,-0.407153,0.033530,11.429033,-0.101522,0.035306,-0.027046,0.021667,-0.377333,-0.331667
984576594,-0.352068,-0.052690,11.357183,-0.099257,0.039170,-0.025047,0.019333,-0.376667,-0.339000
984586596,-0.385598,0.004790,11.302097,-0.102988,0.037038,-0.023715,0.023333,-0.375000,-0.335333
984596598,-0.395178,-0.004790,11.515254,-0.101522,0.034374,-0.023982,0.023333,-0.377333,-0.337333
984606600,-0.469424,-0.035925,11.321258,-0.100723,0.036106,-0.028645,0.019333,-0.375000,-0.338333
984616600,-0.390388,-0.035925,11.383529,-0.103387,0.033041,-0.025847,0.025000,-0.375000,-0.333667
984626601,-0.344883,-0.093406,11.445799,-0.099790,0.036106,-0.024781,0.026667,-0.375667,-0.339000
984636603,-0.385598,0.004790,11.414663,-0.100057,0.037172,-0.026380,0.023333,-0.380000,-0.334333
984646605,-0.373623,-0.052690,11.263778,-0.102322,0.036772,-0.027712,0.019333,-0.376667,-0.340000
984656605,-0.349673,0.014370,11.321258,-0.102055,0.034773,-0.025980,0.019333,-0.377333,-0.338333
984666607,-0.380808,-0.069456,11.309282,-0.100723,0.039703,-0.025047,0.018667,-0.374000,-0.334333
984676607,-0.371228,-0.045505,11.294912,-0.102055,0.038104,-0.027712,0.019333,-0.374000,-0.339000
984686607,-0.349673,0.000000,11.357183,-0.106718,0.041035,-0.028112,0.020333,-0.372333,-0.340000
984696608,-0.419128,-0.055085,11.383529,-0.100989,0.039703,-0.027179,0.023333,-0.375000,-0.342667
984706610,-0.390388,-0.014370,11.292518,-0.100190,0.039836,-0.025980,0.017000,-0.374000,-0.338333
984716610,-0.354463,-0.067061,11.297308,-0.096992,0.037305,-0.022250,0.020333,-0.376667,-0.340000
984726611,-0.404758,0.019160,11.395503,-0.098058,0.039703,-0.025714,0.021667,-0.378333,-0.337333
984736613,-0.426313,-0.026345,11.357183,-0.100989,0.032642,-0.026247,0.022333,-0.375000,-0.340667
984746614,-0.361648,-0.067061,11.302097,-0.101123,0.036239,-0.027312,0.020667,-0.375000,-0.338333
984756614,-0.311353,0.016765,11.318863,-0.099257,0.036772,-0.027179,0.020667,-0.377333,-0.339000
984766615,-0.435894,0.021555,11.349998,-0.103787,0.036372,-0.027979,0.024000,-0.379000,-0.337333
984776617,-0.435894,-0.026345,11.306888,-0.106052,0.037438,-0.026913,0.024000,-0.375667,-0.339000
984786619,-0.464634,-0.064666,11.330838,-0.100456,0.038904,-0.026113,0.020667,-0.376667,-0.337333
984796620,-0.433499,0.019160,11.338023,-0.103787,0.037971,-0.027845,0.025667,-0.376667,-0.336000
984806620,-0.421523,-0.028740,11.292518,-0.106052,0.036372,-0.029444,0.020667,-0.375667,-0.336000
984816621,-0.445474,-0.031135,11.371553,-0.098991,0.038371,-0.026247,0.021667,-0.380000,-0.340667
984826622,-0.457449,0.019160,11.302097,-0.102455,0.031576,-0.025181,0.021667,-0.380667,-0.338333
984836623,-0.380808,-0.007185,11.378738,-0.100456,0.034374,-0.026646,0.020333,-0.375667,-0.339000
984846625,-0.392783,-0.016765,11.311678,-0.106985,0.035573,-0.027179,0.017667,-0.376667,-0.342000
984856627,-0.407153,0.000000,11.285333,-0.105652,0.035706,-0.024515,0.017000,-0.375000,-0.339000
984866627,-0.392783,-0.047900,11.335628,-0.105786,0.031842,-0.025447,0.019333,-0.375667,-0.340667
984876628,-0.397573,-0.071851,11.318863,-0.104853,0.034107,-0.023449,0.018667,-0.378333,-0.340000
984886628,-0.328118,-0.002395,11.340418,-0.103387,0.034240,-0.028778,0.020333,-0.377333,-0.338333
984896630,-0.399968,-0.040715,11.383529,-0.105919,0.034107,-0.027712,0.020333,-0.380000,-0.340667
984906631,-0.397573,-0.038320,11.333233,-0.102588,0.033441,-0.021983,0.022333,-0.375667,-0.340667
984916631,-0.404758,-0.023950,11.306888,-0.104453,0.035706,-0.024648,0.024000,-0.377333,-0.336000
984926631,-0.330513,-0.088616,11.359578,-0.099657,0.038904,-0.026380,0.025000,-0.380000,-0.336000
984936632,-0.299377,-0.031135,11.270963,-0.100856,0.039836,-0.026913,0.023333,-0.375667,-0.340000
984946634,-0.409548,0.028740,11.388318,-0.099790,0.036905,-0.027179,0.025667,-0.372333,-0.342000
984956636,-0.395178,-0.014370,11.326048,-0.098991,0.040769,-0.026646,0.020333,-0.374000,-0.340667
984966636,-0.423918,0.007185,11.263778,-0.102055,0.041835,-0.025714,0.024000,-0.374000,-0.339000
984976637,-0.493374,-0.019160,11.278148,-0.105386,0.035839,-0.027579,0.025667,-0.376667,-0.342000
984986638,-0.399968,0.004790,11.333233,-0.105919,0.035173,-0.027312,0.020667,-0.377333,-0.338333
984996640,-0.335303,-0.016765,11.371553,-0.105786,0.038504,-0.028112,0.019333,-0.379000,-0.339000
985006640,-0.332908,-0.050295,11.287727,-0.105119,0.034107,-0.027845,0.021667,-0.378333,-0.339000
985016640,-0.359253,-0.069456,11.290123,-0.100989,0.038770,-0.027979,0.023333,-0.375667,-0.342000
985026642,-0.399968,-0.035925,11.321258,-0.097525,0.038904,-0.023848,0.022333,-0.375000,-0.343667
985036642,-0.464634,-0.007185,11.292518,-0.097259,0.041035,-0.024781,0.020667,-0.376667,-0.337333
985046644,-0.332908,0.019160,11.314073,-0.102721,0.037172,-0.025447,0.020667,-0.376667,-0.339000
985056645,-0.318538,-0.019160,11.311678,-0.100190,0.039170,-0.026779,0.018667,-0.379000,-0.340000
985066646,-0.426313,-0.045505,11.383529,-0.102721,0.036639,-0.026247,0.021667,-0.372333,-0.335333
985076648,-0.423918,-0.026345,11.302097,-0.102988,0.033041,-0.023315,0.019333,-0.377333,-0.338333
985086650,-0.387993,-0.047900,11.424244,-0.104320,0.035573,-0.027312,0.021667,-0.374000,-0.340000
985096652,-0.359253,-0.014370,11.287727,-0.101123,0.034907,-0.026247,0.022333,-0.375000,-0.337333
985106654,-0.373623,-0.129331,11.290123,-0.101922,0.034507,-0.025580,0.021667,-0.378333,-0.339000
985116656,-0.344883,0.009580,11.405084,-0.102588,0.034107,-0.026513,0.023333,-0.381667,-0.340000
985126658,-0.469424,-0.052690,11.326048,-0.100057,0.037571,-0.025980,0.024000,-0.374000,-0.340667
985136658,-0.431104,0.011975,11.330838,-0.102455,0.033441,-0.028911,0.020667,-0.377333,-0.342667
985146659,-0.416733,-0.040715,11.421848,-0.099657,0.039170,-0.026779,0.022333,-0.373333,-0.336000
985156659,-0.411943,-0.105381,11.323653,-0.104853,0.033175,-0.027712,0.024000,-0.370000,-0.340667
985166659,-0.352068,-0.019160,11.326048,-0.107518,0.033308,-0.028778,0.017667,-0.375000,-0.340000
985176661,-0.347278,-0.023950,11.381133,-0.106851,0.033175,-0.025181,0.017000,-0.376667,-0.340000
985186661,-0.364043,-0.045505,11.361973,-0.101655,0.034107,-0.027046,0.022333,-0.375667,-0.342000
985196661,-0.342488,-0.057480,11.383529,-0.105119,0.039836,-0.025980,0.018667,-0.375000,-0.336000
985206661,-0.383203,0.019160,11.302097,-0.101389,0.039969,-0.021184,0.021667,-0.378333,-0.337333
985216662,-0.402363,-0.007185,11.419454,-0.102188,0.039969,-0.025580,0.024000,-0.377333,-0.342000
985226662,-0.435894,-0.040715,11.354788,-0.103387,0.034240,-0.024781,0.024000,-0.377333,-0.342000
985236663,-0.404758,0.002395,11.359578,-0.103387,0.037971,-0.029711,0.023333,-0.376667,-0.338333
985246665,-0.457449,-0.033530,11.314073,-0.100323,0.037038,-0.027179,0.024000,-0.375667,-0.339000
985256667,-0.421523,-0.098196,11.306888,-0.100590,0.033841,-0.025181,0.022333,-0.375000,-0.335333
985266669,-0.390388,-0.021555,11.373948,-0.104720,0.033708,-0.025714,0.021667,-0.375000,-0.343667
985276671,-0.342488,0.016765,11.309282,-0.094994,0.034640,-0.024648,0.018667,-0.378333,-0.340667
985286673,-0.311353,-0.028740,11.249407,-0.100723,0.039969,-0.026113,0.020333,-0.378333,-0.340667
985296674,-0.404758,0.004790,11.227852,-0.104587,0.040769,-0.026913,0.020333,-0.374000,-0.342667
985306675,-0.416733,-0.026345,11.390714,-0.106185,0.038770,-0.026247,0.020333,-0.375000,-0.333667
985316677,-0.435894,0.002395,11.407478,-0.103521,0.038104,-0.027712,0.023333,-0.379000,-0.334333
985326677,-0.433499,0.009580,11.306888,-0.103121,0.038504,-0.027712,0.021667,-0.375667,-0.331667
