timestamp_us,ax,ay,az,gx,gy,gz,mx,my,mz,pressure_pa,temperature_c,baro_altitude_m,lat,lon,speed_kmh,altitude_m,gps_h,gps_m,gps_s,gps_cs,satellites,hdop,heading_deg
179088268,5.779182,-7.038963,5.599556,-0.084469,0.040369,-0.010392,-0.435333,1.067667,-0.062667,99127.617,9.650,184.575,37.4628743,126.9586408,0.37,139.000,16,11,38,56,12,0.77,63.12
179092854,5.726492,-7.084468,5.728887,-0.083536,0.044366,-0.010525,-0.442333,1.067000,-0.062667,99126.180,9.650,184.697,37.4628743,126.9586408,0.37,139.000,16,11,38,56,12,0.77,63.12
179130123,5.702542,-7.046148,5.661827,-0.085135,0.041035,-0.009593,-0.440000,1.065333,-0.064333,99126.180,9.650,184.697,37.4628743,126.9586408,0.31,139.000,16,11,38,60,12,0.77,63.12
179134693,5.798343,-7.153924,5.518125,-0.086467,0.042101,-0.006395,-0.438667,1.067667,-0.066667,99126.180,9.650,184.697,37.4628743,126.9586408,0.31,139.000,16,11,38,60,12,0.77,63.12
179170022,5.779182,-7.084468,5.587581,-0.086334,0.041701,-0.010792,-0.432667,1.070333,-0.058333,99126.609,9.650,184.660,37.4628743,126.9586410,0.33,139.000,16,11,38,64,12,0.77,63.12
179174605,5.863008,-7.026988,5.568420,-0.082603,0.040902,-0.007061,-0.433667,1.068667,-0.059000,99126.609,9.650,184.660,37.4628743,126.9586410,0.33,139.000,16,11,38,64,12,0.77,63.12
179209554,5.788763,-7.082073,5.616321,-0.083802,0.043300,-0.009193,-0.437667,1.068667,-0.062000,99126.609,9.650,184.660,37.4628743,126.9586410,0.26,139.000,16,11,38,68,12,0.77,63.12
179214147,5.745652,-7.034173,5.642666,-0.083136,0.041835,-0.007328,-0.437667,1.068667,-0.062000,99126.609,9.650,184.660,37.4628743,126.9586410,0.26,139.000,16,11,38,68,12,0.77,63.12
179249922,5.745652,-7.091653,5.635481,-0.082603,0.041035,-0.009326,-0.435333,1.067000,-0.061000,99129.461,9.650,184.418,37.4628743,126.9586410,0.28,139.000,16,11,38,72,12,0.77,63.12
179254504,5.762417,-7.132369,5.575606,-0.084868,0.042900,-0.009459,-0.435333,1.067000,-0.061000,99129.461,9.650,184.418,37.4628743,126.9586410,0.28,139.000,16,11,38,72,12,0.77,63.12
179289945,5.783972,-7.060518,5.692962,-0.085268,0.040902,-0.005995,-0.437000,1.067000,-0.060000,99125.938,9.650,184.717,37.4628745,126.9586410,0.43,139.000,16,11,38,76,12,0.77,63.12
179294494,5.666616,-7.024592,5.633086,-0.085135,0.043167,-0.007994,-0.437000,1.067000,-0.060000,99125.938,9.650,184.717,37.4628745,126.9586410,0.43,139.000,16,11,38,76,12,0.77,63.12
179329478,5.755232,-7.072493,5.580396,-0.084602,0.038770,-0.006129,-0.439000,1.067667,-0.064333,99125.938,9.650,184.717,37.4628745,126.9586412,0.5,139.000,16,11,38,80,12,0.77,63.12
179334025,5.757627,-7.007827,5.683382,-0.084069,0.039969,-0.007727,-0.437667,1.067000,-0.063667,99125.938,9.650,184.717,37.4628745,126.9586412,0.5,139.000,16,11,38,80,12,0.77,63.12
179369940,5.733677,-7.048543,5.544470,-0.085801,0.041568,-0.007727,-0.438667,1.065333,-0.062667,99128.125,9.650,184.532,37.4628745,126.9586412,0.5,139.000,16,11,38,84,12,0.77,63.12
179374534,5.788763,-7.046148,5.652246,-0.084335,0.041701,-0.008660,-0.435333,1.064333,-0.063667,99128.125,9.650,184.532,37.4628745,126.9586412,0.5,139.000,16,11,38,84,12,0.77,63.12
179409414,5.786367,-7.096443,5.561235,-0.082337,0.040769,-0.007594,-0.438667,1.066000,-0.059000,99128.125,9.650,184.532,37.4628745,126.9586412,0.26,139.000,16,11,38,88,12,0.77,63.12
179414013,5.791157,-7.029383,5.685777,-0.085668,0.041968,-0.010259,-0.435333,1.070333,-0.062000,99129.891,9.640,184.382,37.4628745,126.9586412,0.26,139.000,16,11,38,88,12,0.85,63.12
179449338,5.750442,-7.010222,5.587581,-0.086600,0.041168,-0.005862,-0.439000,1.068667,-0.060000,99129.891,9.640,184.382,37.4628745,126.9586412,0.3,139.000,16,11,38,92,12,0.85,63.12
179453926,5.745652,-7.086863,5.647456,-0.081138,0.042101,-0.009992,-0.437667,1.063667,-0.065667,99129.891,9.640,184.382,37.4628745,126.9586412,0.3,139.000,16,11,38,92,12,0.85,63.12
179496202,5.745652,-7.079678,5.628296,-0.084602,0.041568,-0.009326,-0.437000,1.067000,-0.062000,99130.641,9.650,184.318,37.4628745,126.9586413,0.5,139.000,16,11,38,96,12,0.85,63.12
179500797,5.752837,-7.055728,5.671406,-0.084735,0.040636,-0.008793,-0.437000,1.067000,-0.062000,99130.641,9.650,184.318,37.4628745,126.9586413,0.5,139.000,16,11,38,96,12,0.85,63.12
179528353,5.755232,-7.043753,5.637876,-0.083669,0.040636,-0.007994,-0.439000,1.073667,-0.062000,99130.641,9.650,184.318,37.4628745,126.9586413,0.59,139.000,16,11,39,0,12,0.85,63.12
179532952,5.695357,-7.070098,5.484595,-0.084202,0.040636,-0.009326,-0.439000,1.065333,-0.062000,99130.641,9.650,184.318,37.4628745,126.9586413,0.59,139.000,16,11,39,0,12,0.85,63.12
179569188,5.736072,-7.050938,5.616321,-0.085135,0.043034,-0.007861,-0.437000,1.064333,-0.062000,99128.031,9.650,184.540,37.4628745,126.9586413,0.46,139.000,16,11,39,4,12,0.85,63.12
179573754,5.752837,-7.055728,5.652246,-0.082870,0.042634,-0.008394,-0.435333,1.068667,-0.059000,99128.031,9.650,184.540,37.4628745,126.9586413,0.46,139.000,16,11,39,4,12,0.85,63.12
179611441,5.795948,-7.050938,5.721702,-0.085401,0.037571,-0.009193,-0.438667,1.067000,-0.064333,99128.453,9.650,184.504,37.4628745,126.9586412,0.24,139.000,16,11,39,8,12,0.85,63.12
179616011,5.769602,-7.062913,5.606741,-0.081404,0.040902,-0.009459,-0.440667,1.068667,-0.067333,99128.453,9.650,184.504,37.4628745,126.9586412,0.24,139.000,16,11,39,8,12,0.77,63.12
179650088,5.750442,-7.065308,5.623506,-0.084335,0.042634,-0.007461,-0.437000,1.063667,-0.068333,99128.453,9.650,184.504,37.4628745,126.9586412,0.11,139.000,16,11,39,12,12,0.77,63.12
179654698,5.707332,-7.041358,5.599556,-0.083536,0.042767,-0.007328,-0.435333,1.062667,-0.065667,99128.453,9.650,184.504,37.4628745,126.9586412,0.11,139.000,16,11,39,12,12,0.85,63.12
179690012,5.786367,-7.036568,5.611531,-0.084202,0.041835,-0.007061,-0.439000,1.067000,-0.064333,99129.461,9.650,184.418,37.4628745,126.9586412,0.07,139.000,16,11,39,16,12,0.85,63.12
179694590,5.807923,-7.110813,5.532495,-0.084735,0.041168,-0.009726,-0.439000,1.070333,-0.063667,99129.461,9.650,184.418,37.4628745,126.9586412,0.07,139.000,16,11,39,16,12,0.85,63.12
179730566,5.760022,-7.050938,5.726492,-0.085934,0.039969,-0.006795,-0.438667,1.068667,-0.062667,99129.461,9.650,184.418,37.4628745,126.9586412,0.09,139.000,16,11,39,20,12,0.85,63.12
179735129,5.786367,-7.034173,5.573211,-0.085002,0.042501,-0.009060,-0.439000,1.068667,-0.063667,99128.203,9.640,184.525,37.4628745,126.9586412,0.09,139.000,16,11,39,20,12,0.85,63.12
179770343,5.719307,-7.024592,5.556446,-0.084735,0.041168,-0.008260,-0.435333,1.070333,-0.062000,99128.203,9.640,184.525,37.4628745,126.9586412,0.22,139.000,16,11,39,24,12,0.85,63.12
179774937,5.757627,-7.070098,5.714517,-0.085002,0.038770,-0.009326,-0.435333,1.064333,-0.062667,99128.203,9.640,184.525,37.4628745,126.9586412,0.22,139.000,16,11,39,24,12,0.85,63.12
179810148,5.757627,-7.048543,5.611531,-0.088066,0.042234,-0.009859,-0.439000,1.067000,-0.066667,99126.516,9.650,184.668,37.4628745,126.9586413,0.33,139.000,16,11,39,28,12,0.85,63.12
179814728,5.774392,-7.041358,5.561235,-0.085002,0.043034,-0.008660,-0.437667,1.066000,-0.063667,99126.516,9.650,184.668,37.4628745,126.9586413,0.33,139.000,16,11,39,28,12,0.85,63.12
179850642,5.757627,-7.094048,5.704937,-0.083270,0.041701,-0.007994,-0.437667,1.070333,-0.066667,99126.516,9.650,184.668,37.4628745,126.9586413,0.35,139.000,16,11,39,32,12,0.85,63.12
179855216,5.779182,-7.036568,5.630691,-0.086067,0.040636,-0.011325,-0.438667,1.072000,-0.066667,99126.516,9.650,184.668,37.4628745,126.9586413,0.35,139.000,16,11,39,32,12,0.85,63.12
179890529,5.791157,-7.084468,5.616321,-0.087400,0.041835,-0.009459,-0.439000,1.065333,-0.063667,99123.508,9.640,184.923,37.4628745,126.9586413,0.33,139.000,16,11,39,36,12,0.85,63.12
179895118,5.762417,-6.998247,5.736072,-0.084735,0.039836,-0.009859,-0.437667,1.067667,-0.068333,99123.508,9.640,184.923,37.4628745,126.9586413,0.33,139.000,16,11,39,36,12,0.85,63.12
179929996,5.764812,-7.060518,5.544470,-0.084469,0.040236,-0.008660,-0.437667,1.064333,-0.063667,99125.266,9.650,184.774,37.4628745,126.9586413,0.28,139.000,16,11,39,40,12,0.85,63.12
179934602,5.755232,-7.077283,5.573211,-0.084868,0.043034,-0.008260,-0.437667,1.064333,-0.063667,99125.266,9.650,184.774,37.4628745,126.9586413,0.28,139.000,16,11,39,40,12,0.77,63.12
179969679,5.807923,-7.007827,5.671406,-0.083936,0.040502,-0.010658,-0.437000,1.065333,-0.071000,99125.266,9.650,184.774,37.4628745,126.9586415,0.37,139.000,16,11,39,44,12,0.77,63.12
179974252,5.764812,-7.067703,5.585186,-0.085135,0.036505,-0.007328,-0.437000,1.066000,-0.061000,99125.266,9.650,184.774,37.4628745,126.9586415,0.37,139.000,16,11,39,44,12,0.85,63.12
180009157,5.688172,-7.091653,5.702542,-0.081538,0.041835,-0.009193,-0.440667,1.064333,-0.060000,99127.375,9.640,184.595,37.4628745,126.9586415,0.33,139.000,16,11,39,48,12,0.85,63.12
180013763,5.740862,-7.022198,5.637876,-0.084735,0.042101,-0.008260,-0.439000,1.067000,-0.065667,99127.375,9.640,184.595,37.4628745,126.9586415,0.33,139.000,16,11,39,48,12,0.85,63.12
180049153,5.783972,-7.046148,5.568420,-0.084202,0.040902,-0.006395,-0.437000,1.067000,-0.067333,99127.375,9.640,184.595,37.4628747,126.9586415,0.2,139.000,16,11,39,52,12,0.85,63.12
180053640,5.791157,-7.079678,5.551655,-0.083669,0.040369,-0.008926,-0.432667,1.065333,-0.064333,99127.375,9.640,184.595,37.4628747,126.9586415,0.2,139.000,16,11,39,52,12,0.77,63.12
180089271,5.733677,-7.022198,5.597161,-0.083536,0.041168,-0.007861,-0.437000,1.071000,-0.062667,99126.867,9.640,184.638,37.4628747,126.9586415,0.33,139.000,16,11,39,56,12,0.77,63.12
180093842,5.748047,-7.029383,5.513335,-0.083136,0.042368,-0.008394,-0.440000,1.067667,-0.064333,99126.867,9.640,184.638,37.4628747,126.9586415,0.33,139.000,16,11,39,56,12,0.77,63.12
180130161,5.803133,-7.067703,5.609136,-0.084202,0.044100,-0.009060,-0.440667,1.073667,-0.060000,99123.430,9.640,184.930,37.4628747,126.9586415,0.22,139.000,16,11,39,60,12,0.77,63.12
180134718,5.733677,-7.055728,5.654641,-0.085534,0.041035,-0.008127,-0.440667,1.073667,-0.060000,99123.430,9.640,184.930,37.4628747,126.9586415,0.22,139.000,16,11,39,60,12,0.77,63.12
180170504,5.738467,-7.074888,5.690567,-0.082870,0.043167,-0.006662,-0.438667,1.069333,-0.061000,99123.430,9.640,184.930,37.4628745,126.9586415,0.31,139.000,16,11,39,64,12,0.77,63.12
180175061,5.769602,-7.034173,5.573211,-0.083270,0.040369,-0.010925,-0.438667,1.069333,-0.061000,99123.430,9.640,184.930,37.4628745,126.9586415,0.31,139.000,16,11,39,64,12,0.77,63.12
180210360,5.733677,-7.132369,5.669012,-0.085801,0.039969,-0.008394,-0.438667,1.066000,-0.062667,99126.281,9.640,184.688,37.4628745,126.9586415,0.33,139.000,16,11,39,68,12,0.77,63.12
180214954,5.760022,-7.036568,5.594766,-0.083669,0.038504,-0.009992,-0.440000,1.067000,-0.063667,99126.281,9.640,184.688,37.4628745,126.9586415,0.33,139.000,16,11,39,68,12,0.77,63.12
180250020,5.771997,-7.070098,5.587581,-0.084735,0.041302,-0.009459,-0.437667,1.064333,-0.065667,99126.281,9.640,184.688,37.4628745,126.9586417,0.39,139.000,16,11,39,72,12,0.77,63.12
180254580,5.822293,-7.115603,5.609136,-0.086467,0.041968,-0.009326,-0.437667,1.066000,-0.063667,99126.188,9.640,184.696,37.4628745,126.9586417,0.39,139.000,16,11,39,72,12,0.77,63.12
180290117,5.767207,-7.041358,5.566026,-0.082204,0.042767,-0.009859,-0.440000,1.067000,-0.062000,99126.188,9.640,184.696,37.4628745,126.9586417,0.28,139.000,16,11,39,76,12,0.77,63.12
180294710,5.812713,-7.038963,5.731282,-0.082070,0.041568,-0.007727,-0.440667,1.067667,-0.066667,99126.188,9.640,184.696,37.4628745,126.9586417,0.28,139.000,16,11,39,76,12,0.77,63.12
180330425,5.764812,-7.048543,5.702542,-0.086467,0.044233,-0.007061,-0.441667,1.066000,-0.065667,99124.680,9.640,184.824,37.4628745,126.9586415,0.09,139.000,16,11,39,80,12,0.77,63.12
180334986,5.767207,-7.053333,5.637876,-0.084069,0.039170,-0.006129,-0.442333,1.064333,-0.064333,99124.680,9.640,184.824,37.4628745,126.9586415,0.09,139.000,16,11,39,80,12,0.77,63.12
180370200,5.769602,-7.084468,5.599556,-0.085135,0.040636,-0.007861,-0.439000,1.069333,-0.063667,99124.680,9.640,184.824,37.4628745,126.9586415,0.07,139.000,16,11,39,84,12,0.77,63.12
180374776,5.714517,-7.046148,5.621111,-0.084602,0.040636,-0.008527,-0.439000,1.071000,-0.062667,99124.680,9.640,184.824,37.4628745,126.9586415,0.07,139.000,16,11,39,84,12,0.77,63.12
180410076,5.810318,-7.026988,5.513335,-0.082204,0.042634,-0.007994,-0.438667,1.067667,-0.063667,99124.102,9.640,184.873,37.4628745,126.9586415,0.13,139.000,16,11,39,88,12,0.77,63.12
180414622,5.719307,-7.096443,5.661827,-0.084335,0.038904,-0.009859,-0.440000,1.066000,-0.062667,99124.102,9.640,184.873,37.4628745,126.9586415,0.13,139.000,16,11,39,88,12,0.77,63.12
180450153,5.779182,-7.153924,5.645061,-0.086467,0.039170,-0.010392,-0.437000,1.066000,-0.063667,99125.703,9.640,184.737,37.4628745,126.9586413,0.06,139.000,16,11,39,92,12,0.77,63.12
180454712,5.745652,-7.060518,5.625901,-0.086201,0.041568,-0.010259,-0.434333,1.066000,-0.059000,99125.703,9.640,184.737,37.4628745,126.9586413,0.06,139.000,16,11,39,92,12,0.77,63.12
180496495,5.731282,-7.074888,5.637876,-0.082603,0.041568,-0.008660,-0.440667,1.067000,-0.067333,99125.703,9.640,184.737,37.4628745,126.9586415,0.07,139.000,16,11,39,96,12,0.77,63.12
180501063,5.786367,-7.036568,5.537285,-0.082603,0.040236,-0.007994,-0.440667,1.064333,-0.064333,99125.703,9.640,184.737,37.4628745,126.9586415,0.07,139.000,16,11,39,96,12,0.85,63.12
180528705,5.795948,-7.024592,5.575606,-0.082870,0.040236,-0.010126,-0.436000,1.065333,-0.066667,99124.516,9.640,184.838,37.4628745,126.9586415,0.15,139.000,16,11,40,0,12,0.85,63.12
180533271,5.774392,-7.106023,5.709727,-0.084868,0.040636,-0.010126,-0.433667,1.067667,-0.066667,99124.516,9.640,184.838,37.4628745,126.9586415,0.15,139.100,16,11,40,0,12,0.77,63.12
180569649,5.812713,-7.012618,5.570816,-0.086067,0.043034,-0.007861,-0.439000,1.068667,-0.057333,99124.516,9.640,184.838,37.4628745,126.9586415,0.11,139.100,16,11,40,4,12,0.77,63.12
180574184,5.788763,-7.086863,5.604346,-0.086467,0.041435,-0.011591,-0.438667,1.069333,-0.062667,99119.992,9.640,185.221,37.4628745,126.9586415,0.11,139.100,16,11,40,4,12,0.77,63.12
180610476,5.707332,-7.084468,5.594766,-0.083802,0.044233,-0.009593,-0.434333,1.066000,-0.061000,99119.992,9.640,185.221,37.4628745,126.9586415,0.19,139.100,16,11,40,8,12,0.77,63.12
180615042,5.755232,-7.038963,5.618716,-0.082737,0.041035,-0.009726,-0.438667,1.068667,-0.062000,99119.992,9.640,185.221,37.4628745,126.9586415,0.19,139.100,16,11,40,8,12,0.77,63.12
180650211,5.783972,-7.024592,5.534890,-0.084602,0.043167,-0.008394,-0.437000,1.072667,-0.062000,99127.953,9.650,184.546,37.4628745,126.9586415,0.02,139.100,16,11,40,12,12,0.77,63.12
180654769,5.774392,-7.067703,5.546865,-0.083403,0.040902,-0.007328,-0.437000,1.070333,-0.062667,99127.953,9.650,184.546,37.4628745,126.9586415,0.02,139.100,16,11,40,12,12,0.85,63.12
180690196,5.791157,-7.024592,5.479805,-0.083003,0.041168,-0.009060,-0.440000,1.068667,-0.060000,99127.953,9.650,184.546,37.4628745,126.9586417,0.17,139.100,16,11,40,16,12,0.85,63.12
180694774,5.812713,-7.026988,5.623506,-0.085268,0.043433,-0.011591,-0.441667,1.069333,-0.063667,99127.953,9.650,184.546,37.4628745,126.9586417,0.17,139.100,16,11,40,16,12,0.85,63.12
180730046,5.769602,-7.036568,5.597161,-0.084602,0.038637,-0.010259,-0.434333,1.071000,-0.062000,99125.609,9.640,184.745,37.4628745,126.9586417,0.13,139.100,16,11,40,20,12,0.85,63.12
180734647,5.779182,-7.043753,5.618716,-0.084602,0.043034,-0.008127,-0.436000,1.069333,-0.066667,99125.609,9.640,184.745,37.4628745,126.9586417,0.13,139.100,16,11,40,20,12,0.85,63.12
180770289,5.781578,-7.034173,5.659431,-0.082870,0.042234,-0.009193,-0.437000,1.067667,-0.062000,99128.203,9.640,184.525,37.4628745,126.9586417,0.24,139.100,16,11,40,24,12,0.85,63.12
180774859,5.793552,-7.101233,5.563631,-0.083669,0.039436,-0.007594,-0.437667,1.070333,-0.063667,99128.203,9.640,184.525,37.4628745,126.9586417,0.24,139.100,16,11,40,24,12,0.85,63.12
180810529,5.757627,-7.043753,5.606741,-0.084602,0.040369,-0.009992,-0.440000,1.068667,-0.069000,99128.203,9.640,184.525,37.4628745,126.9586417,0.24,139.100,16,11,40,28,12,0.85,63.12
180815122,5.760022,-7.046148,5.659431,-0.082337,0.042368,-0.008527,-0.440000,1.068667,-0.069000,99128.203,9.640,184.525,37.4628745,126.9586417,0.24,139.100,16,11,40,28,12,0.85,63.12
180850351,5.724097,-7.089258,5.599556,-0.083802,0.039436,-0.011058,-0.439000,1.065333,-0.071000,99123.516,9.640,184.922,37.4628745,126.9586417,0.24,139.100,16,11,40,32,12,0.85,63.12
180854913,5.719307,-7.015013,5.561235,-0.081937,0.040103,-0.007861,-0.437667,1.067000,-0.067333,99123.516,9.640,184.922,37.4628745,126.9586417,0.24,139.100,16,11,40,32,12,0.85,63.12
180890209,5.752837,-7.043753,5.604346,-0.083270,0.040902,-0.006129,-0.439000,1.067667,-0.067333,99123.516,9.640,184.922,37.4628745,126.9586417,0.11,139.100,16,11,40,36,12,0.85,63.12
180894768,5.783972,-7.043753,5.690567,-0.082603,0.044899,-0.009859,-0.436000,1.072000,-0.062000,99124.016,9.640,184.880,37.4628745,126.9586417,0.11,139.100,16,11,40,36,12,0.85,63.12
180930739,5.752837,-7.043753,5.683382,-0.083003,0.042634,-0.009859,-0.444000,1.069333,-0.064333,99124.016,9.640,184.880,37.4628745,126.9586417,0.11,139.100,16,11,40,40,12,0.85,63.12
180935300,5.803133,-7.048543,5.621111,-0.082870,0.041701,-0.010658,-0.439000,1.068667,-0.063667,99124.016,9.640,184.880,37.4628745,126.9586417,0.11,139.100,16,11,40,40,12,0.85,63.12
180970496,5.779182,-7.086863,5.628296,-0.085002,0.040502,-0.009726,-0.437667,1.067667,-0.061000,99125.016,9.640,184.795,37.4628745,126.9586417,0.07,139.100,16,11,40,44,12,0.85,63.12
180975046,5.776787,-7.019803,5.678592,-0.084469,0.042368,-0.007194,-0.437667,1.067667,-0.061000,99125.016,9.640,184.795,37.4628745,126.9586417,0.07,139.100,16,11,40,44,12,0.85,63.12
181009094,5.783972,-7.058123,5.678592,-0.082470,0.041302,-0.009593,-0.438667,1.067667,-0.060000,99125.016,9.640,184.795,37.4628745,126.9586417,0.02,139.100,16,11,40,48,12,0.85,63.12
181013641,5.738467,-7.060518,5.695357,-0.083936,0.045032,-0.009060,-0.437667,1.066000,-0.063667,99125.016,9.640,184.795,37.4628745,126.9586417,0.02,139.100,16,11,40,48,12,0.85,63.12
181049340,5.733677,-7.015013,5.601951,-0.082870,0.039836,-0.008527,-0.442333,1.066000,-0.065667,99125.359,9.640,184.766,37.4628745,126.9586417,0.06,139.100,16,11,40,52,12,0.85,63.12
181053869,5.817502,-7.017407,5.589976,-0.082737,0.043034,-0.007594,-0.440667,1.069333,-0.062000,99125.359,9.640,184.766,37.4628745,126.9586417,0.06,139.100,16,11,40,52,12,0.85,63.12
181090274,5.764812,-7.010222,5.618716,-0.083536,0.042900,-0.010658,-0.436000,1.062333,-0.067333,99124.102,9.640,184.873,37.4628743,126.9586417,0.02,139.100,16,11,40,56,12,0.85,63.12
181094732,5.800737,-6.986272,5.589976,-0.083270,0.041701,-0.009326,-0.437667,1.069333,-0.062667,99124.102,9.640,184.873,37.4628743,126.9586417,0.02,139.100,16,11,40,56,12,0.85,63.12
181130151,5.788763,-7.022198,5.601951,-0.082070,0.039836,-0.011591,-0.432667,1.072000,-0.061000,99124.102,9.640,184.873,37.4628743,126.9586417,0.02,139.100,16,11,40,60,12,0.85,63.12
181134708,5.764812,-7.036568,5.661827,-0.084469,0.039703,-0.010925,-0.435333,1.066000,-0.067333,99124.102,9.640,184.873,37.4628743,126.9586417,0.02,139.100,16,11,40,60,12,0.85,63.12
181170531,5.771997,-7.060518,5.575606,-0.082603,0.040369,-0.008660,-0.439000,1.067667,-0.063667,99126.188,9.640,184.696,37.4628743,126.9586417,0.06,139.100,16,11,40,64,12,0.85,63.12
181175109,5.791157,-7.053333,5.637876,-0.083669,0.042101,-0.010259,-0.435333,1.068667,-0.064333,99126.188,9.640,184.696,37.4628743,126.9586417,0.06,139.100,16,11,40,64,12,0.85,63.12
181209702,5.776787,-7.060518,5.661827,-0.085668,0.041302,-0.008926,-0.437000,1.069333,-0.067333,99126.188,9.640,184.696,37.4628743,126.9586417,0.07,139.100,16,11,40,68,12,0.85,63.12
181214294,5.755232,-7.053333,5.657036,-0.081538,0.042368,-0.007061,-0.438667,1.065333,-0.067333,99126.188,9.640,184.696,37.4628743,126.9586417,0.07,139.100,16,11,40,68,12,0.85,63.12
181249754,5.781578,-7.072493,5.606741,-0.083270,0.041568,-0.009459,-0.438667,1.067000,-0.064333,99124.188,9.640,184.865,37.4628745,126.9586418,0.04,139.100,16,11,40,72,12,0.85,63.12
181254328,5.748047,-7.067703,5.625901,-0.084335,0.042368,-0.009060,-0.437000,1.067000,-0.061000,99124.188,9.640,184.865,37.4628745,126.9586418,0.04,139.100,16,11,40,72,12,0.85,63.12
181289739,5.848638,-7.072493,5.561235,-0.084202,0.039170,-0.006528,-0.440000,1.073667,-0.066667,99121.844,9.640,185.064,37.4628743,126.9586418,0.02,139.100,16,11,40,76,12,0.85,63.12
181294274,5.771997,-7.046148,5.611531,-0.085934,0.044100,-0.008793,-0.437667,1.071000,-0.064333,99121.844,9.640,185.064,37.4628743,126.9586418,0.02,139.100,16,11,40,76,12,0.85,63.12
181329562,5.750442,-7.053333,5.628296,-0.083936,0.040103,-0.008793,-0.438667,1.072000,-0.060000,99121.844,9.640,185.064,37.4628743,126.9586418,0.09,139.100,16,11,40,80,12,0.85,63.12
181334129,5.748047,-7.053333,5.616321,-0.086201,0.041035,-0.007061,-0.437000,1.068667,-0.061000,99121.844,9.640,185.064,37.4628743,126.9586418,0.09,139.100,16,11,40,80,12,0.85,63.12
181369693,5.721702,-7.036568,5.657036,-0.084469,0.042101,-0.008127,-0.437667,1.067000,-0.061000,99121.594,9.640,185.085,37.4628743,126.9586418,0.09,139.100,16,11,40,84,12,0.85,63.12
181374160,5.783972,-7.062913,5.532495,-0.084069,0.040369,-0.009060,-0.437667,1.062667,-0.057333,99121.594,9.640,185.085,37.4628743,126.9586418,0.09,139.100,16,11,40,84,12,0.85,63.12
181410184,5.805528,-7.053333,5.618716,-0.083536,0.041835,-0.011458,-0.436000,1.066000,-0.063667,99122.766,9.640,184.986,37.4628743,126.9586418,0.07,139.100,16,11,40,88,12,0.85,63.12
181414730,5.712122,-7.041358,5.726492,-0.082870,0.044632,-0.008527,-0.436000,1.066000,-0.063667,99122.766,9.640,184.986,37.4628743,126.9586418,0.07,139.200,16,11,40,88,12,0.85,63.12
181449653,5.750442,-7.062913,5.661827,-0.084868,0.036772,-0.009593,-0.442333,1.067667,-0.062000,99122.766,9.640,184.986,37.4628743,126.9586418,0.06,139.200,16,11,40,92,12,0.85,63.12
181454183,5.791157,-7.015013,5.745652,-0.085002,0.040769,-0.009459,-0.436000,1.069333,-0.060000,99122.766,9.640,184.986,37.4628743,126.9586418,0.06,139.200,16,11,40,92,12,0.85,63.12
181494550,5.752837,-6.993457,5.566026,-0.084469,0.041835,-0.007994,-0.438667,1.067667,-0.061000,99122.953,9.630,184.970,37.4628743,126.9586418,0.07,139.200,16,11,40,96,12,0.85,63.12
181499117,5.707332,-7.077283,5.606741,-0.082737,0.043034,-0.008527,-0.436000,1.072000,-0.064333,99122.953,9.630,184.970,37.4628743,126.9586418,0.07,139.200,16,11,40,96,12,0.85,63.12
181528652,5.827083,-7.055728,5.544470,-0.087266,0.043567,-0.008793,-0.437667,1.068667,-0.061000,99122.953,9.630,184.970,37.4628743,126.9586418,0.19,139.200,16,11,41,0,12,0.85,63.12
181533211,5.745652,-7.067703,5.597161,-0.083403,0.043167,-0.009859,-0.437667,1.068667,-0.061000,99122.953,9.630,184.970,37.4628743,126.9586418,0.19,139.200,16,11,41,0,12,0.85,63.12
181570586,5.750442,-7.029383,5.589976,-0.084335,0.042501,-0.008127,-0.440000,1.066000,-0.060000,99123.445,9.640,184.928,37.4628743,126.9586418,0.06,139.200,16,11,41,4,12,0.85,63.12
181575180,5.700147,-7.053333,5.592371,-0.085534,0.041435,-0.008127,-0.435333,1.070333,-0.062000,99123.445,9.640,184.928,37.4628743,126.9586418,0.06,139.200,16,11,41,4,12,0.85,63.12
181610267,5.776787,-7.046148,5.589976,-0.085934,0.041568,-0.010126,-0.435333,1.067000,-0.063667,99125.297,9.630,184.771,37.4628742,126.9586417,0.15,139.200,16,11,41,8,12,0.85,63.12
181614864,5.810318,-7.041358,5.599556,-0.084735,0.040502,-0.009726,-0.436000,1.067000,-0.054333,99125.297,9.630,184.771,37.4628742,126.9586417,0.15,139.200,16,11,41,8,12,0.85,63.12
181650609,5.781578,-7.067703,5.647456,-0.086334,0.042767,-0.005862,-0.436000,1.065333,-0.061000,99125.297,9.630,184.771,37.4628742,126.9586418,0.19,139.200,16,11,41,12,12,0.85,63.12
181655206,5.748047,-7.048543,5.601951,-0.083936,0.043167,-0.011191,-0.440000,1.066000,-0.062000,99125.297,9.630,184.771,37.4628742,126.9586418,0.19,139.200,16,11,41,12,12,0.78,63.12
181690785,5.764812,-7.060518,5.671406,-0.085401,0.042767,-0.008793,-0.440000,1.067667,-0.059000,99126.375,9.640,184.680,37.4628743,126.9586418,0.04,139.200,16,11,41,16,12,0.78,63.12
181695366,5.755232,-7.077283,5.697752,-0.084335,0.040902,-0.008926,-0.440000,1.067667,-0.059000,99126.375,9.640,184.680,37.4628743,126.9586418,0.04,139.200,16,11,41,16,12,0.78,63.12
181730489,5.709727,-7.041358,5.630691,-0.084602,0.041701,-0.009992,-0.441667,1.067000,-0.066667,99126.375,9.640,184.680,37.4628743,126.9586420,0.13,139.200,16,11,41,20,12,0.78,63.12
181735047,5.769602,-7.005433,5.640271,-0.083669,0.039170,-0.008394,-0.437667,1.063667,-0.058333,99126.719,9.640,184.651,37.4628743,126.9586420,0.13,139.200,16,11,41,20,12,0.78,63.12
181770756,5.755232,-7.050938,5.716912,-0.083669,0.041435,-0.007061,-0.440667,1.066000,-0.061000,99126.719,9.640,184.651,37.4628743,126.9586420,0.13,139.200,16,11,41,24,12,0.78,63.12
181775281,5.757627,-7.065308,5.573211,-0.085934,0.042234,-0.009859,-0.437000,1.071000,-0.059000,99126.719,9.640,184.651,37.4628743,126.9586420,0.13,139.200,16,11,41,24,12,0.78,63.12
181810793,5.760022,-7.082073,5.647456,-0.083403,0.044632,-0.005995,-0.437000,1.064333,-0.064333,99127.547,9.640,184.581,37.4628743,126.9586420,0.19,139.200,16,11,41,28,12,0.78,63.12
181815344,5.745652,-7.074888,5.501360,-0.084469,0.041568,-0.007994,-0.431000,1.065333,-0.064333,99127.547,9.640,184.581,37.4628743,126.9586420,0.19,139.200,16,11,41,28,12,0.78,63.12
181850762,5.750442,-7.094048,5.640271,-0.085934,0.041035,-0.013190,-0.436000,1.067000,-0.058333,99127.547,9.640,184.581,37.4628743,126.9586420,0.06,139.200,16,11,41,32,12,0.78,63.12
181855325,5.760022,-7.106023,5.625901,-0.084335,0.041968,-0.008260,-0.436000,1.067000,-0.058333,99127.547,9.640,184.581,37.4628743,126.9586420,0.06,139.200,16,11,41,32,12,0.78,63.12
181890734,5.659431,-7.005433,5.616321,-0.084202,0.042101,-0.008793,-0.443333,1.067667,-0.054333,99121.352,9.630,185.106,37.4628743,126.9586420,0.02,139.200,16,11,41,36,12,0.78,63.12
181895306,5.769602,-7.091653,5.652246,-0.085268,0.039836,-0.010525,-0.443333,1.067667,-0.054333,99121.352,9.630,185.106,37.4628743,126.9586420,0.02,139.200,16,11,41,36,12,0.78,63.12
181930675,5.795948,-7.067703,5.573211,-0.083536,0.039969,-0.008793,-0.437667,1.068667,-0.062667,99121.344,9.640,185.106,37.4628743,126.9586422,0.02,139.200,16,11,41,40,12,0.78,63.12
181935241,5.764812,-7.031778,5.618716,-0.083003,0.040769,-0.008527,-0.437667,1.067667,-0.067333,99121.344,9.640,185.106,37.4628743,126.9586422,0.02,139.200,16,11,41,40,12,0.78,63.12
181970128,5.800737,-7.048543,5.649851,-0.084202,0.039436,-0.007328,-0.434333,1.067000,-0.064333,99121.344,9.640,185.106,37.4628743,126.9586422,0.02,139.200,16,11,41,44,12,0.78,63.12
181974676,5.721702,-7.046148,5.594766,-0.087133,0.040236,-0.007061,-0.440000,1.067000,-0.062000,99121.344,9.640,185.106,37.4628743,126.9586422,0.02,139.200,16,11,41,44,12,0.78,63.12
182010090,5.788763,-7.053333,5.609136,-0.086201,0.041035,-0.009193,-0.437000,1.067000,-0.061000,99123.781,9.640,184.900,37.4628743,126.9586422,0.09,139.200,16,11,41,48,12,0.78,63.12
182014585,5.800737,-7.077283,5.599556,-0.085135,0.042368,-0.007461,-0.437667,1.066000,-0.063667,99123.781,9.640,184.900,37.4628743,126.9586422,0.09,139.300,16,11,41,48,12,0.78,63.12
182049471,5.740862,-7.120393,5.568420,-0.082603,0.042900,-0.008793,-0.439000,1.065333,-0.066667,99123.781,9.640,184.900,37.4628743,126.9586422,0.22,139.300,16,11,41,52,12,0.78,63.12
182054027,5.771997,-7.003037,5.539680,-0.084202,0.038637,-0.010126,-0.440667,1.065333,-0.062000,99126.719,9.640,184.651,37.4628743,126.9586422,0.22,139.300,16,11,41,52,12,0.78,63.12
182090527,5.846243,-7.015013,5.578001,-0.086334,0.042101,-0.009459,-0.438667,1.070333,-0.063667,99126.719,9.640,184.651,37.4628743,126.9586423,0.28,139.300,16,11,41,56,12,0.78,63.12
182095056,5.767207,-6.998247,5.601951,-0.083802,0.041035,-0.009859,-0.438667,1.071000,-0.062667,99126.719,9.640,184.651,37.4628743,126.9586423,0.28,139.300,16,11,41,56,12,0.78,63.12
182130777,5.776787,-7.022198,5.534890,-0.083270,0.040103,-0.007994,-0.433667,1.069333,-0.061000,99124.531,9.640,184.836,37.4628743,126.9586423,0.26,139.300,16,11,41,60,12,0.78,63.12
182135321,5.791157,-7.048543,5.625901,-0.085934,0.040236,-0.006262,-0.439000,1.067000,-0.062667,99124.531,9.640,184.836,37.4628743,126.9586423,0.26,139.200,16,11,41,60,12,0.78,63.12
182170724,5.783972,-7.058123,5.566026,-0.086467,0.043034,-0.005462,-0.440000,1.067000,-0.061000,99124.531,9.640,184.836,37.4628743,126.9586425,0.26,139.200,16,11,41,64,12,0.78,63.12
182175232,5.733677,-7.134764,5.673801,-0.082737,0.040369,-0.006662,-0.436000,1.067000,-0.062000,99124.531,9.640,184.836,37.4628743,126.9586425,0.26,139.200,16,11,41,64,12,0.78,63.12
182210373,5.800737,-7.036568,5.621111,-0.084602,0.040636,-0.009593,-0.437667,1.066000,-0.060000,99123.953,9.640,184.885,37.4628743,126.9586425,0.28,139.200,16,11,41,68,12,0.78,63.12
182214925,5.721702,-7.122788,5.666616,-0.081538,0.039969,-0.008793,-0.439000,1.066000,-0.058333,99123.953,9.640,184.885,37.4628743,126.9586425,0.28,139.200,16,11,41,68,12,0.78,63.12
182250694,5.721702,-7.019803,5.568420,-0.082737,0.039703,-0.010658,-0.437000,1.066000,-0.059000,99122.516,9.640,185.007,37.4628743,126.9586425,0.2,139.200,16,11,41,72,12,0.78,63.12
182255215,5.748047,-7.151529,5.558841,-0.082870,0.042234,-0.008394,-0.435333,1.066000,-0.061000,99122.516,9.640,185.007,37.4628743,126.9586425,0.2,139.300,16,11,41,72,12,0.78,63.12
182290772,5.798343,-7.067703,5.566026,-0.083936,0.040103,-0.007994,-0.442333,1.065333,-0.061000,99122.516,9.640,185.007,37.4628743,126.9586425,0.04,139.300,16,11,41,76,12,0.78,63.12
182295341,5.788763,-7.026988,5.661827,-0.082337,0.041568,-0.008527,-0.443333,1.064333,-0.059000,99122.516,9.640,185.007,37.4628743,126.9586425,0.04,139.300,16,11,41,76,12,0.78,63.12
182330404,5.748047,-7.091653,5.613926,-0.082070,0.041835,-0.006528,-0.434333,1.067667,-0.063667,99125.281,9.640,184.773,37.4628743,126.9586427,0.15,139.300,16,11,41,80,12,0.78,63.12
182335011,5.728887,-7.060518,5.748047,-0.085401,0.039969,-0.008394,-0.435333,1.066000,-0.059000,99125.281,9.640,184.773,37.4628743,126.9586427,0.15,139.300,16,11,41,80,12,0.78,63.12
182370486,5.740862,-7.015013,5.575606,-0.084735,0.041701,-0.009193,-0.435333,1.068667,-0.061000,99125.281,9.640,184.773,37.4628743,126.9586427,0.17,139.300,16,11,41,84,12,0.78,63.12
182375094,5.750442,-7.022198,5.606741,-0.085135,0.042234,-0.007861,-0.437667,1.067000,-0.061000,99125.281,9.640,184.773,37.4628743,126.9586427,0.17,139.300,16,11,41,84,12,0.78,63.12
182410643,5.752837,-7.082073,5.589976,-0.084602,0.042900,-0.008394,-0.432000,1.071000,-0.067333,99120.516,9.630,185.177,37.4628743,126.9586427,0.22,139.300,16,11,41,88,12,0.78,63.12
182415233,5.736072,-7.067703,5.601951,-0.082737,0.040369,-0.008127,-0.439000,1.071000,-0.062667,99120.516,9.630,185.177,37.4628743,126.9586427,0.22,139.300,16,11,41,88,12,0.84,63.12
182450711,5.760022,-7.053333,5.575606,-0.082603,0.041968,-0.007194,-0.441667,1.067000,-0.061000,99121.016,9.630,185.134,37.4628743,126.9586427,0.22,139.300,16,11,41,92,12,0.84,63.12
182455296,5.798343,-7.038963,5.573211,-0.084868,0.044233,-0.008527,-0.439000,1.067000,-0.066667,99121.016,9.630,185.134,37.4628743,126.9586427,0.22,139.300,16,11,41,92,12,0.84,63.12
182495545,5.779182,-7.048543,5.616321,-0.083003,0.039836,-0.009459,-0.437667,1.067667,-0.061000,99121.016,9.630,185.134,37.4628742,126.9586427,0.19,139.300,16,11,41,96,12,0.84,63.12
182500128,5.810318,-7.065308,5.664221,-0.084069,0.042900,-0.007061,-0.437667,1.067667,-0.061000,99121.016,9.630,185.134,37.4628742,126.9586427,0.19,139.300,16,11,41,96,12,0.84,63.12
182529285,5.793552,-7.113208,5.637876,-0.084335,0.041701,-0.008926,-0.440000,1.067667,-0.061000,99120.344,9.630,185.191,37.4628743,126.9586427,0.24,139.300,16,11,42,0,12,0.84,63.12
182533822,5.824688,-7.038963,5.635481,-0.084602,0.041968,-0.007994,-0.440000,1.068667,-0.061000,99120.344,9.630,185.191,37.4628743,126.9586427,0.24,139.300,16,11,42,0,12,0.84,63.12
182570588,5.769602,-7.101233,5.659431,-0.084469,0.042234,-0.011191,-0.440000,1.064333,-0.060000,99119.172,9.630,185.290,37.4628743,126.9586428,0.37,139.300,16,11,42,4,12,0.84,63.12
182575104,5.788763,-7.036568,5.580396,-0.085135,0.042767,-0.009326,-0.440000,1.064333,-0.060000,99119.172,9.630,185.290,37.4628743,126.9586428,0.37,139.300,16,11,42,4,12,0.85,63.12
182610814,5.745652,-7.036568,5.556446,-0.085135,0.042634,-0.009060,-0.439000,1.067667,-0.064333,99119.172,9.630,185.290,37.4628742,126.9586427,0.15,139.300,16,11,42,8,12,0.85,63.12
182615356,5.752837,-7.038963,5.611531,-0.084602,0.041168,-0.008260,-0.438667,1.072667,-0.060000,99119.172,9.630,185.290,37.4628742,126.9586427,0.15,139.300,16,11,42,8,12,0.85,63.12
182650262,5.755232,-7.062913,5.566026,-0.084735,0.042101,-0.007594,-0.437000,1.064333,-0.062667,99123.781,9.640,184.900,37.4628742,126.9586427,0.09,139.300,16,11,42,12,12,0.85,63.12
182654814,5.812713,-7.094048,5.563631,-0.084069,0.042101,-0.007461,-0.440000,1.067667,-0.061000,99123.781,9.640,184.900,37.4628742,126.9586427,0.09,139.300,16,11,42,12,12,0.85,63.12
182690346,5.731282,-7.038963,5.618716,-0.085401,0.042234,-0.010792,-0.438667,1.067000,-0.063667,99123.781,9.640,184.900,37.4628742,126.9586425,0.04,139.300,16,11,42,16,12,0.85,63.12
182694856,5.841453,-7.053333,5.630691,-0.083270,0.042234,-0.007594,-0.440667,1.069333,-0.064333,99123.781,9.640,184.900,37.4628742,126.9586425,0.04,139.300,16,11,42,16,12,0.85,63.12
182732604,5.812713,-7.094048,5.589976,-0.085002,0.040369,-0.008793,-0.440667,1.065333,-0.059000,99119.844,9.630,185.234,37.4628742,126.9586425,0.17,139.300,16,11,42,20,12,0.85,63.12
182737183,5.724097,-7.029383,5.561235,-0.082337,0.043433,-0.006662,-0.434333,1.065333,-0.065667,99119.844,9.630,185.234,37.4628742,126.9586425,0.17,139.300,16,11,42,20,12,0.85,63.12
182770489,5.774392,-7.103628,5.630691,-0.085002,0.040236,-0.010658,-0.440000,1.068667,-0.065667,99119.250,9.640,185.284,37.4628742,126.9586425,0.09,139.300,16,11,42,24,12,0.85,63.12
182775069,5.788763,-7.060518,5.647456,-0.084335,0.041035,-0.009593,-0.437667,1.071000,-0.064333,99119.250,9.640,185.284,37.4628742,126.9586425,0.09,139.400,16,11,42,24,12,0.85,63.12
182810323,5.748047,-7.029383,5.568420,-0.082470,0.039969,-0.010525,-0.438667,1.067000,-0.060000,99119.250,9.640,185.284,37.4628742,126.9586427,0.06,139.400,16,11,42,28,12,0.85,63.12
182814886,5.791157,-7.060518,5.589976,-0.083802,0.041701,-0.008394,-0.437667,1.069333,-0.061000,99119.250,9.640,185.284,37.4628742,126.9586427,0.06,139.400,16,11,42,28,12,0.85,63.12
182851721,5.788763,-7.060518,5.587581,-0.081804,0.040369,-0.011058,-0.439000,1.065333,-0.069000,99118.742,9.640,185.327,37.4628742,126.9586425,0.07,139.400,16,11,42,32,12,0.85,63.12
182856289,5.719307,-7.117998,5.623506,-0.083403,0.039170,-0.009992,-0.441667,1.067000,-0.063667,99118.742,9.640,185.327,37.4628742,126.9586425,0.07,139.400,16,11,42,32,12,0.84,63.12
182891642,5.783972,-7.050938,5.666616,-0.084602,0.043700,-0.008527,-0.440000,1.067000,-0.070333,99119.750,9.640,185.241,37.4628740,126.9586425,0.04,139.400,16,11,42,36,12,0.84,63.12
182896133,5.738467,-7.022198,5.570816,-0.081937,0.041835,-0.008793,-0.440000,1.067000,-0.070333,99119.750,9.640,185.241,37.4628740,126.9586425,0.04,139.400,16,11,42,36,12,0.84,63.12
182930777,5.779182,-7.034173,5.609136,-0.083802,0.042101,-0.007461,-0.437000,1.067000,-0.062667,99119.750,9.640,185.241,37.4628740,126.9586425,0.06,139.400,16,11,42,40,12,0.84,63.12
182935280,5.774392,-7.029383,5.558841,-0.080871,0.041568,-0.008926,-0.442333,1.067667,-0.059000,99119.750,9.640,185.241,37.4628740,126.9586425,0.06,139.400,16,11,42,40,12,0.84,63.12
182969720,5.767207,-6.991062,5.582791,-0.085668,0.042234,-0.008127,-0.438667,1.064333,-0.062667,99116.219,9.640,185.541,37.4628740,126.9586425,0.07,139.400,16,11,42,44,12,0.84,63.12
182974177,5.755232,-7.050938,5.578001,-0.083403,0.041968,-0.008394,-0.438667,1.062667,-0.063667,99116.219,9.640,185.541,37.4628740,126.9586425,0.07,139.400,16,11,42,44,12,0.84,63.12
183009803,5.712122,-7.067703,5.645061,-0.081538,0.042234,-0.008527,-0.437000,1.066000,-0.065667,99116.219,9.640,185.541,37.4628740,126.9586425,0.04,139.400,16,11,42,48,12,0.84,63.12
183014335,5.726492,-7.038963,5.546865,-0.083536,0.040769,-0.008527,-0.437667,1.071000,-0.062000,99116.219,9.640,185.541,37.4628740,126.9586425,0.04,139.400,16,11,42,48,12,0.84,63.12
183050754,5.757627,-7.072493,5.649851,-0.082204,0.041701,-0.010925,-0.441667,1.062667,-0.062667,99121.938,9.640,185.056,37.4628740,126.9586425,0.02,139.400,16,11,42,52,12,0.84,63.12
183055241,5.764812,-7.060518,5.657036,-0.082204,0.042900,-0.009459,-0.439000,1.067000,-0.064333,99121.938,9.640,185.056,37.4628740,126.9586425,0.02,139.400,16,11,42,52,12,0.85,63.12
183090547,5.829478,-7.050938,5.580396,-0.083003,0.039703,-0.008793,-0.439000,1.067000,-0.066667,99122.188,9.630,185.035,37.4628740,126.9586425,0.09,139.400,16,11,42,56,12,0.85,63.12
183095064,5.724097,-7.007827,5.630691,-0.085401,0.041168,-0.008926,-0.440667,1.071000,-0.065667,99122.188,9.630,185.035,37.4628740,126.9586425,0.09,139.400,16,11,42,56,12,0.85,63.12
183130796,5.738467,-7.022198,5.563631,-0.086467,0.041968,-0.010925,-0.437667,1.065333,-0.063667,99122.188,9.630,185.035,37.4628740,126.9586427,0.11,139.400,16,11,42,60,12,0.85,63.12
183135315,5.760022,-7.038963,5.628296,-0.084469,0.043700,-0.007994,-0.437000,1.072000,-0.062667,99122.188,9.630,185.035,37.4628740,126.9586427,0.11,139.400,16,11,42,60,12,0.84,63.12
183171746,5.683382,-7.082073,5.601951,-0.084202,0.040502,-0.008394,-0.439000,1.070333,-0.062667,99120.750,9.640,185.157,37.4628740,126.9586427,0.07,139.400,16,11,42,64,12,0.84,63.12
183176237,5.803133,-7.036568,5.659431,-0.083802,0.043433,-0.010392,-0.435333,1.067667,-0.070333,99120.750,9.640,185.157,37.4628740,126.9586427,0.07,139.400,16,11,42,64,12,0.84,63.12
183211736,5.767207,-7.026988,5.633086,-0.085135,0.044632,-0.007328,-0.437000,1.063667,-0.065667,99120.750,9.640,185.157,37.4628740,126.9586427,0.06,139.400,16,11,42,68,12,0.84,63.12
183216284,5.750442,-7.048543,5.597161,-0.085668,0.038904,-0.008527,-0.438667,1.065333,-0.063667,99120.250,9.640,185.199,37.4628740,126.9586427,0.06,139.400,16,11,42,68,12,0.84,63.12
183250515,5.776787,-7.055728,5.621111,-0.084202,0.041701,-0.007994,-0.437667,1.066000,-0.065667,99120.250,9.640,185.199,37.4628740,126.9586427,0.04,139.400,16,11,42,72,12,0.84,63.12
183255027,5.771997,-7.036568,5.664221,-0.084602,0.041968,-0.009326,-0.437667,1.066000,-0.065667,99120.250,9.640,185.199,37.4628740,126.9586427,0.04,139.400,16,11,42,72,12,0.85,63.12
183290425,5.736072,-7.036568,5.580396,-0.084202,0.041435,-0.007861,-0.439000,1.072000,-0.060000,99117.656,9.630,185.419,37.4628738,126.9586427,0.06,139.400,16,11,42,76,12,0.85,63.12
183294988,5.714517,-7.031778,5.592371,-0.080205,0.041968,-0.010525,-0.440667,1.067000,-0.062000,99117.656,9.630,185.419,37.4628738,126.9586427,0.06,139.400,16,11,42,76,12,0.85,63.12
183330764,5.724097,-7.041358,5.575606,-0.083669,0.041035,-0.005596,-0.440667,1.065333,-0.060000,99117.656,9.630,185.419,37.4628738,126.9586425,0.04,139.400,16,11,42,80,12,0.85,63.12
183335329,5.786367,-7.050938,5.573211,-0.083003,0.039703,-0.005995,-0.435333,1.065333,-0.062000,99117.656,9.630,185.419,37.4628738,126.9586425,0.04,139.400,16,11,42,80,12,0.85,63.12
183370393,5.745652,-7.110813,5.618716,-0.083270,0.040369,-0.006395,-0.438667,1.066000,-0.063667,99119.172,9.630,185.290,37.4628740,126.9586425,0.17,139.400,16,11,42,84,12,0.85,63.12
183374952,5.733677,-7.110813,5.702542,-0.084602,0.040902,-0.009726,-0.440000,1.063667,-0.062667,99119.172,9.630,185.290,37.4628740,126.9586425,0.17,139.400,16,11,42,84,12,0.98,63.12
183410274,5.700147,-7.079678,5.623506,-0.084069,0.039436,-0.009593,-0.438667,1.067000,-0.062000,99117.992,9.630,185.390,37.4628738,126.9586427,0.04,139.400,16,11,42,88,12,0.98,63.12
183414852,5.786367,-7.067703,5.664221,-0.085002,0.043034,-0.009459,-0.438667,1.067000,-0.062000,99117.992,9.630,185.390,37.4628738,126.9586427,0.04,139.500,16,11,42,88,12,0.98,63.12
183448629,5.783972,-7.058123,5.621111,-0.085135,0.039570,-0.009193,-0.440667,1.068667,-0.068333,99117.992,9.630,185.390,37.4628738,126.9586428,0.13,139.500,16,11,42,92,12,0.98,63.12
183453223,5.769602,-7.034173,5.587581,-0.083669,0.040902,-0.008394,-0.440667,1.070333,-0.064333,99117.992,9.630,185.390,37.4628738,126.9586428,0.13,139.500,16,11,42,92,12,0.98,63.12
183495368,5.803133,-7.029383,5.673801,-0.083802,0.043167,-0.009992,-0.438667,1.068667,-0.066667,99117.062,9.640,185.469,37.4628738,126.9586428,0.04,139.500,16,11,42,96,12,0.98,63.12
183499950,5.764812,-7.000642,5.618716,-0.082470,0.040502,-0.009060,-0.438667,1.068667,-0.066667,99117.062,9.640,185.469,37.4628738,126.9586428,0.04,139.500,16,11,42,96,12,0.98,63.12
183529887,5.767207,-7.026988,5.601951,-0.084335,0.041835,-0.009193,-0.437000,1.070333,-0.065667,99117.062,9.640,185.469,37.4628738,126.9586428,0.09,139.500,16,11,43,0,12,0.98,63.12
183534437,5.805528,-7.060518,5.716912,-0.084069,0.043833,-0.010126,-0.440000,1.067667,-0.064333,99117.062,9.640,185.469,37.4628738,126.9586428,0.09,139.500,16,11,43,0,12,0.98,63.12
183570801,5.760022,-7.043753,5.621111,-0.085002,0.041968,-0.006528,-0.442333,1.067000,-0.067333,99118.500,9.630,185.347,37.4628738,126.9586427,0.13,139.500,16,11,43,4,12,0.98,63.12
183575309,5.724097,-7.019803,5.721702,-0.083802,0.040502,-0.005596,-0.442333,1.067000,-0.067333,99118.500,9.630,185.347,37.4628738,126.9586427,0.13,139.500,16,11,43,4,12,0.95,63.12
183614501,5.764812,-7.007827,5.587581,-0.084868,0.040369,-0.007328,-0.439000,1.072000,-0.068333,99118.828,9.630,185.320,37.4628738,126.9586427,0.11,139.500,16,11,43,8,12,0.95,63.12
183619064,5.771997,-7.062913,5.645061,-0.082470,0.041168,-0.007194,-0.439000,1.067000,-0.067333,99118.828,9.630,185.320,37.4628738,126.9586427,0.11,139.500,16,11,43,8,12,0.98,63.12
183650418,5.781578,-7.043753,5.580396,-0.085534,0.041435,-0.008394,-0.437000,1.068667,-0.066667,99118.828,9.630,185.320,37.4628738,126.9586427,0.17,139.500,16,11,43,12,12,0.98,63.12
183655007,5.752837,-7.036568,5.666616,-0.083802,0.041435,-0.007594,-0.443333,1.063667,-0.068333,99118.828,9.630,185.320,37.4628738,126.9586427,0.17,139.500,16,11,43,12,12,0.98,63.12
183690320,5.786367,-7.060518,5.618716,-0.084202,0.041035,-0.008394,-0.436000,1.071000,-0.065667,99114.641,9.630,185.675,37.4628738,126.9586427,0.09,139.500,16,11,43,16,12,0.98,63.12
183694905,5.712122,-7.082073,5.578001,-0.083270,0.040236,-0.007727,-0.437000,1.071000,-0.059000,99114.641,9.630,185.675,37.4628738,126.9586427,0.09,139.500,16,11,43,16,12,0.98,63.12
183730198,5.779182,-7.062913,5.594766,-0.082204,0.040636,-0.006395,-0.437000,1.067000,-0.067333,99115.812,9.630,185.575,37.4628737,126.9586428,0.04,139.500,16,11,43,20,12,0.98,63.12
183734770,5.707332,-7.077283,5.669012,-0.083669,0.041302,-0.010392,-0.437667,1.067000,-0.064333,99115.812,9.630,185.575,37.4628737,126.9586428,0.04,139.500,16,11,43,20,12,0.98,63.12
183770412,5.726492,-7.043753,5.549261,-0.084602,0.039570,-0.010392,-0.437000,1.065333,-0.067333,99115.812,9.630,185.575,37.4628737,126.9586427,0.28,139.500,16,11,43,24,12,0.98,63.12
183774984,5.721702,-7.072493,5.566026,-0.082737,0.041302,-0.007994,-0.436000,1.067667,-0.064333,99115.812,9.630,185.575,37.4628737,126.9586427,0.28,139.600,16,11,43,24,12,0.98,63.12
183810649,5.748047,-7.022198,5.606741,-0.082870,0.041968,-0.009459,-0.440000,1.066000,-0.063667,99121.352,9.630,185.106,37.4628737,126.9586427,0.15,139.600,16,11,43,28,12,0.98,63.12
183815170,5.769602,-7.043753,5.589976,-0.084735,0.042101,-0.008394,-0.438667,1.070333,-0.067333,99121.352,9.630,185.106,37.4628737,126.9586427,0.15,139.600,16,11,43,28,12,0.98,63.12
183850226,5.769602,-7.007827,5.503755,-0.085135,0.038770,-0.007194,-0.435333,1.066000,-0.063667,99121.352,9.630,185.106,37.4628735,126.9586427,0.11,139.600,16,11,43,32,12,0.98,63.12
183854781,5.805528,-7.015013,5.692962,-0.084735,0.044499,-0.008926,-0.436000,1.068667,-0.066667,99121.352,9.630,185.106,37.4628735,126.9586427,0.11,139.600,16,11,43,32,12,0.98,63.12
183890475,5.767207,-7.067703,5.542076,-0.081937,0.046098,-0.007461,-0.437667,1.069333,-0.065667,99117.992,9.630,185.390,37.4628737,126.9586428,0.13,139.600,16,11,43,36,12,0.98,63.12
183895026,5.793552,-7.101233,5.640271,-0.082337,0.042368,-0.007727,-0.437667,1.062333,-0.062000,99117.992,9.630,185.390,37.4628737,126.9586428,0.13,139.600,16,11,43,36,12,0.98,63.12
183929678,5.745652,-7.065308,5.704937,-0.083936,0.041035,-0.008660,-0.433667,1.069333,-0.066667,99120.156,9.640,185.207,37.4628737,126.9586428,0.06,139.600,16,11,43,40,12,0.98,63.12
183934237,5.733677,-7.062913,5.645061,-0.084069,0.041701,-0.007594,-0.433667,1.069333,-0.066667,99120.156,9.640,185.207,37.4628737,126.9586428,0.06,139.600,16,11,43,40,12,0.98,63.12
183968581,5.740862,-7.086863,5.561235,-0.083403,0.041701,-0.008260,-0.439000,1.068667,-0.062667,99120.156,9.640,185.207,37.4628737,126.9586430,0.13,139.600,16,11,43,44,12,0.98,63.12
183973132,5.764812,-7.079678,5.566026,-0.083536,0.037571,-0.009593,-0.439000,1.068667,-0.062667,99120.156,9.640,185.207,37.4628737,126.9586430,0.13,139.600,16,11,43,44,12,0.98,63.12
184008891,5.786367,-7.017407,5.645061,-0.083669,0.041968,-0.008926,-0.440667,1.067667,-0.067333,99118.164,9.630,185.376,37.4628737,126.9586432,0.19,139.600,16,11,43,48,12,0.98,63.12
184013440,5.745652,-7.055728,5.554050,-0.085268,0.043300,-0.009859,-0.439000,1.068667,-0.063667,99118.164,9.630,185.376,37.4628737,126.9586432,0.19,139.600,16,11,43,48,12,0.98,63.12
184049741,5.807923,-7.034173,5.597161,-0.082870,0.041968,-0.007727,-0.437000,1.063667,-0.064333,99118.164,9.630,185.376,37.4628737,126.9586432,0.19,139.600,16,11,43,52,12,0.98,63.12
184054242,5.834268,-7.089258,5.640271,-0.082603,0.042501,-0.010525,-0.438667,1.067000,-0.062000,99117.320,9.630,185.447,37.4628737,126.9586432,0.19,139.600,16,11,43,52,12,0.98,63.12
184089604,5.733677,-7.062913,5.659431,-0.081804,0.044632,-0.007727,-0.441667,1.070333,-0.065667,99117.320,9.630,185.447,37.4628737,126.9586433,0.28,139.600,16,11,43,56,12,0.98,63.12
184094179,5.805528,-7.034173,5.633086,-0.085934,0.042767,-0.006129,-0.437000,1.069333,-0.068333,99117.320,9.630,185.447,37.4628737,126.9586433,0.28,139.500,16,11,43,56,12,0.98,63.12
184128885,5.788763,-7.038963,5.587581,-0.084469,0.042368,-0.008527,-0.438667,1.063667,-0.066667,99120.438,9.630,185.183,37.4628737,126.9586433,0.19,139.500,16,11,43,60,12,0.98,63.12
184133402,5.736072,-7.053333,5.625901,-0.082470,0.038104,-0.009459,-0.438667,1.068667,-0.067333,99120.438,9.630,185.183,37.4628737,126.9586433,0.19,139.600,16,11,43,60,12,0.98,63.12
184169677,5.824688,-7.082073,5.556446,-0.084602,0.042368,-0.007727,-0.439000,1.066000,-0.065667,99120.438,9.630,185.183,37.4628737,126.9586435,0.2,139.600,16,11,43,64,12,0.98,63.12
184174200,5.791157,-7.053333,5.506150,-0.085002,0.042634,-0.010392,-0.439000,1.066000,-0.065667,99120.438,9.630,185.183,37.4628737,126.9586435,0.2,139.600,16,11,43,64,12,0.98,63.12
184209631,5.743257,-7.058123,5.635481,-0.081538,0.044366,-0.008926,-0.437667,1.072667,-0.064333,99116.734,9.630,185.497,37.4628737,126.9586435,0.28,139.600,16,11,43,68,12,0.98,63.12
184214159,5.771997,-7.036568,5.623506,-0.084335,0.039436,-0.010658,-0.440000,1.067667,-0.065667,99116.734,9.630,185.497,37.4628737,126.9586435,0.28,139.600,16,11,43,68,12,0.98,63.12
184249643,5.750442,-7.041358,5.625901,-0.086467,0.041302,-0.009060,-0.434333,1.069333,-0.063667,99117.672,9.630,185.418,37.4628737,126.9586437,0.2,139.600,16,11,43,72,12,0.98,63.12
184254217,5.738467,-7.079678,5.640271,-0.086600,0.042501,-0.006528,-0.439000,1.068667,-0.068333,99117.672,9.630,185.418,37.4628737,126.9586437,0.2,139.600,16,11,43,72,12,0.98,63.12
184289642,5.736072,-7.046148,5.561235,-0.082737,0.041568,-0.011991,-0.437667,1.068667,-0.062000,99117.672,9.630,185.418,37.4628737,126.9586437,0.19,139.600,16,11,43,76,12,0.98,63.12
184294236,5.712122,-7.096443,5.546865,-0.083669,0.040769,-0.009992,-0.437000,1.067667,-0.061000,99117.672,9.630,185.418,37.4628737,126.9586437,0.19,139.600,16,11,43,76,12,0.98,63.12
184328900,5.807923,-7.053333,5.659431,-0.087133,0.040902,-0.009726,-0.440000,1.067000,-0.062667,99114.812,9.630,185.660,37.4628737,126.9586437,0.24,139.600,16,11,43,80,12,0.98,63.12
184333491,5.810318,-7.038963,5.546865,-0.085135,0.040236,-0.007994,-0.435333,1.062667,-0.067333,99114.812,9.630,185.660,37.4628737,126.9586437,0.24,139.600,16,11,43,80,12,0.98,63.12
184369526,5.755232,-7.077283,5.630691,-0.083136,0.042368,-0.008127,-0.436000,1.068667,-0.062000,99114.812,9.630,185.660,37.4628737,126.9586438,0.35,139.600,16,11,43,84,12,0.98,63.12
184374122,5.760022,-7.055728,5.470225,-0.085135,0.042101,-0.006662,-0.437667,1.071000,-0.069000,99117.078,9.630,185.468,37.4628737,126.9586438,0.35,139.600,16,11,43,84,12,0.98,63.12
184409834,5.738467,-7.060518,5.582791,-0.084335,0.043034,-0.007061,-0.440000,1.067667,-0.064333,99117.078,9.630,185.468,37.4628737,126.9586438,0.31,139.600,16,11,43,88,12,0.98,63.12
184414418,5.724097,-7.038963,5.604346,-0.085401,0.039570,-0.006395,-0.440000,1.067000,-0.065667,99117.078,9.630,185.468,37.4628737,126.9586438,0.31,139.600,16,11,43,88,12,0.98,63.12
184447960,5.750442,-7.067703,5.563631,-0.083136,0.039969,-0.009459,-0.435333,1.067667,-0.068333,99112.875,9.630,185.824,37.4628737,126.9586440,0.28,139.600,16,11,43,92,12,0.98,63.12
184452558,5.745652,-7.043753,5.654641,-0.084202,0.040636,-0.008926,-0.437000,1.068667,-0.069000,99112.875,9.630,185.824,37.4628737,126.9586440,0.28,139.600,16,11,43,92,12,0.98,63.12
184493902,5.762417,-7.058123,5.570816,-0.085002,0.041701,-0.009193,-0.437000,1.072667,-0.061000,99112.875,9.630,185.824,37.4628737,126.9586440,0.24,139.600,16,11,43,96,12,0.98,63.12
184498488,5.812713,-7.034173,5.685777,-0.084735,0.040902,-0.010126,-0.438667,1.072667,-0.066667,99112.875,9.630,185.824,37.4628737,126.9586440,0.24,139.600,16,11,43,96,12,0.98,63.12
184530493,5.798343,-7.058123,5.637876,-0.083270,0.039969,-0.006262,-0.438667,1.062333,-0.066667,99115.656,9.630,185.588,37.4628735,126.9586440,0.17,139.600,16,11,44,0,12,0.98,63.12
184535091,5.774392,-7.034173,5.554050,-0.083403,0.041435,-0.008527,-0.440000,1.062667,-0.063667,99115.656,9.630,185.588,37.4628735,126.9586440,0.17,139.600,16,11,44,0,12,0.98,63.12
184570443,5.779182,-7.038963,5.628296,-0.083003,0.040103,-0.007194,-0.433667,1.068667,-0.062667,99116.156,9.630,185.546,37.4628735,126.9586438,0.17,139.600,16,11,44,4,12,0.98,63.12
184575049,5.738467,-7.022198,5.661827,-0.081671,0.042634,-0.007861,-0.439000,1.064333,-0.061000,99116.156,9.630,185.546,37.4628735,126.9586438,0.17,139.600,16,11,44,4,12,0.98,63.12
184614403,5.776787,-7.060518,5.563631,-0.085401,0.040103,-0.008260,-0.439000,1.067000,-0.062000,99116.156,9.630,185.546,37.4628735,126.9586438,0.04,139.600,16,11,44,8,12,0.98,63.12
184618966,5.731282,-7.065308,5.611531,-0.086600,0.042767,-0.009992,-0.441667,1.063667,-0.062000,99116.156,9.630,185.546,37.4628735,126.9586438,0.04,139.600,16,11,44,8,12,0.98,63.12
184650467,5.795948,-7.082073,5.542076,-0.084868,0.041701,-0.007861,-0.439000,1.069333,-0.061000,99116.234,9.630,185.539,37.4628735,126.9586438,0.11,139.600,16,11,44,12,12,0.98,63.12
184654953,5.745652,-7.086863,5.642666,-0.083403,0.043966,-0.007727,-0.437000,1.067000,-0.061000,99116.234,9.630,185.539,37.4628735,126.9586438,0.11,139.700,16,11,44,12,12,0.98,63.12
184690405,5.743257,-7.079678,5.647456,-0.085002,0.041035,-0.009193,-0.440000,1.067000,-0.064333,99116.234,9.630,185.539,37.4628735,126.9586438,0.06,139.700,16,11,44,16,12,0.98,63.12
184694980,5.745652,-7.070098,5.657036,-0.082870,0.041302,-0.007194,-0.439000,1.067667,-0.065667,99118.250,9.630,185.369,37.4628735,126.9586438,0.06,139.700,16,11,44,16,12,0.98,63.12
184729875,5.774392,-7.106023,5.628296,-0.085534,0.040103,-0.008660,-0.440000,1.070333,-0.062000,99118.250,9.630,185.369,37.4628735,126.9586438,0.09,139.700,16,11,44,20,12,0.98,63.12
184734465,5.798343,-7.091653,5.601951,-0.084069,0.042634,-0.008394,-0.440667,1.066000,-0.062667,99118.250,9.630,185.369,37.4628735,126.9586438,0.09,139.700,16,11,44,20,12,0.98,63.12
184770466,5.800737,-7.034173,5.683382,-0.084735,0.042101,-0.006928,-0.437667,1.062667,-0.060000,99114.391,9.630,185.696,37.4628733,126.9586438,0.06,139.700,16,11,44,24,12,0.98,63.12
184774961,5.724097,-7.101233,5.678592,-0.086334,0.041568,-0.009060,-0.443333,1.065333,-0.060000,99114.391,9.630,185.696,37.4628733,126.9586438,0.06,139.700,16,11,44,24,12,0.98,63.12
184810622,5.819898,-7.074888,5.645061,-0.084202,0.042101,-0.011458,-0.437667,1.065333,-0.071000,99114.391,9.630,185.696,37.4628733,126.9586440,0.07,139.700,16,11,44,28,12,0.98,63.12
184815160,5.719307,-7.072493,5.642666,-0.084335,0.040902,-0.009992,-0.439000,1.068667,-0.062667,99114.391,9.630,185.696,37.4628733,126.9586440,0.07,139.700,16,11,44,28,12,0.98,63.12
184850416,5.783972,-7.062913,5.601951,-0.084202,0.041168,-0.008394,-0.437667,1.066000,-0.064333,99117.320,9.630,185.447,37.4628733,126.9586440,0.07,139.700,16,11,44,32,12,0.98,63.12
184854959,5.712122,-6.988667,5.506150,-0.084202,0.039303,-0.007061,-0.440667,1.067667,-0.068333,99117.320,9.630,185.447,37.4628733,126.9586440,0.07,139.700,16,11,44,32,12,0.98,63.12
184891349,5.803133,-7.067703,5.599556,-0.085268,0.043966,-0.010525,-0.437667,1.066000,-0.065667,99116.570,9.630,185.511,37.4628733,126.9586440,0.07,139.700,16,11,44,36,12,0.98,63.12
184895930,5.750442,-7.117998,5.582791,-0.084469,0.042101,-0.006928,-0.434333,1.068667,-0.064333,99116.570,9.630,185.511,37.4628733,126.9586440,0.07,139.700,16,11,44,36,12,0.98,63.12
184928924,5.783972,-7.053333,5.549261,-0.086467,0.043833,-0.011325,-0.443333,1.067000,-0.062667,99116.570,9.630,185.511,37.4628733,126.9586440,0.19,139.700,16,11,44,40,12,0.98,63.12
184933448,5.788763,-7.074888,5.649851,-0.081271,0.039170,-0.009593,-0.443333,1.067000,-0.062667,99116.570,9.630,185.511,37.4628733,126.9586440,0.19,139.700,16,11,44,40,12,0.95,63.12
184969438,5.827083,-7.060518,5.613926,-0.086067,0.044899,-0.007727,-0.442333,1.067000,-0.065667,99118.422,9.630,185.354,37.4628733,126.9586440,0.17,139.700,16,11,44,44,12,0.95,63.12
184973905,5.721702,-7.086863,5.609136,-0.083270,0.039170,-0.008260,-0.442333,1.067000,-0.065667,99118.422,9.630,185.354,37.4628733,126.9586440,0.17,139.700,16,11,44,44,12,0.95,63.12
185010775,5.795948,-7.043753,5.532495,-0.084735,0.043167,-0.009859,-0.441667,1.068667,-0.066667,99118.422,9.630,185.354,37.4628733,126.9586440,0.11,139.700,16,11,44,48,12,0.95,63.12
185015289,5.752837,-7.043753,5.635481,-0.082337,0.043300,-0.008793,-0.441667,1.068667,-0.066667,99118.422,9.630,185.354,37.4628733,126.9586440,0.11,139.800,16,11,44,48,12,0.95,63.12
185050462,5.714517,-7.022198,5.657036,-0.085401,0.045032,-0.010658,-0.438667,1.064333,-0.066667,99119.500,9.630,185.263,37.4628732,126.9586438,0.07,139.800,16,11,44,52,12,0.95,63.12
185054954,5.726492,-7.067703,5.659431,-0.085801,0.039703,-0.007727,-0.437667,1.062333,-0.063667,99119.500,9.630,185.263,37.4628732,126.9586438,0.07,139.800,16,11,44,52,12,0.95,63.12
185090375,5.807923,-7.094048,5.582791,-0.084202,0.040902,-0.009992,-0.437667,1.068667,-0.063667,99117.992,9.630,185.390,37.4628732,126.9586438,0.09,139.800,16,11,44,56,12,0.95,63.12
185094988,5.712122,-7.048543,5.582791,-0.083403,0.042501,-0.010392,-0.440667,1.066000,-0.064333,99117.992,9.630,185.390,37.4628732,126.9586438,0.09,139.800,16,11,44,56,12,0.95,63.12
185130970,5.764812,-7.079678,5.570816,-0.085801,0.043167,-0.011191,-0.440000,1.066000,-0.067333,99117.992,9.630,185.390,37.4628732,126.9586440,0.07,139.800,16,11,44,60,12,0.95,63.12
185135515,5.745652,-7.103628,5.673801,-0.083136,0.041435,-0.007994,-0.442333,1.067667,-0.066667,99117.992,9.630,185.390,37.4628732,126.9586440,0.07,139.800,16,11,44,60,12,0.95,63.12
185170636,5.771997,-7.055728,5.592371,-0.087133,0.041302,-0.009593,-0.437667,1.063667,-0.065667,99120.516,9.630,185.177,37.4628732,126.9586440,0.09,139.800,16,11,44,64,12,0.95,63.12
185175140,5.783972,-6.993457,5.661827,-0.084602,0.041968,-0.008926,-0.437667,1.063667,-0.065667,99120.516,9.630,185.177,37.4628732,126.9586440,0.09,139.800,16,11,44,64,12,0.95,63.12
185210336,5.769602,-7.070098,5.580396,-0.084469,0.042101,-0.007994,-0.440000,1.063667,-0.062667,99122.609,9.640,184.999,37.4628732,126.9586440,0.11,139.800,16,11,44,68,12,0.95,63.12
185214840,5.776787,-7.038963,5.685777,-0.085002,0.041835,-0.008260,-0.440000,1.067667,-0.062667,99122.609,9.640,184.999,37.4628732,126.9586440,0.11,139.800,16,11,44,68,12,0.95,63.12
185250521,5.755232,-7.086863,5.566026,-0.082737,0.039570,-0.007994,-0.437667,1.069333,-0.060000,99122.609,9.640,184.999,37.4628732,126.9586440,0.07,139.800,16,11,44,72,12,0.95,63.12
185255018,5.704937,-7.101233,5.652246,-0.083403,0.042767,-0.008527,-0.439000,1.066000,-0.063667,99122.609,9.640,184.999,37.4628732,126.9586440,0.07,139.800,16,11,44,72,12,0.95,63.12
185290608,5.779182,-7.060518,5.609136,-0.083669,0.041835,-0.007727,-0.436000,1.070333,-0.064333,99122.102,9.640,185.042,37.4628732,126.9586440,0.09,139.800,16,11,44,76,12,0.95,63.12
185295103,5.788763,-7.091653,5.578001,-0.083403,0.042900,-0.008793,-0.438667,1.065333,-0.062667,99122.102,9.640,185.042,37.4628732,126.9586440,0.09,139.800,16,11,44,76,12,0.95,63.12
185330377,5.750442,-7.036568,5.616321,-0.084602,0.040103,-0.009593,-0.441667,1.069333,-0.067333,99122.102,9.640,185.042,37.4628732,126.9586440,0.04,139.800,16,11,44,80,12,0.95,63.12
185334939,5.733677,-7.084468,5.599556,-0.085135,0.043034,-0.009726,-0.438667,1.075333,-0.064333,99122.102,9.640,185.042,37.4628732,126.9586440,0.04,139.800,16,11,44,80,12,0.95,63.12
185370601,5.676197,-7.084468,5.609136,-0.084202,0.038904,-0.006662,-0.437667,1.067667,-0.064333,99122.016,9.630,185.049,37.4628732,126.9586440,0.13,139.800,16,11,44,84,12,0.95,63.12
185375134,5.757627,-7.070098,5.628296,-0.083802,0.037438,-0.007061,-0.443333,1.068667,-0.068333,99122.016,9.630,185.049,37.4628732,126.9586440,0.13,139.800,16,11,44,84,12,0.95,63.12
185408992,5.704937,-7.050938,5.575606,-0.083936,0.039170,-0.006795,-0.437667,1.067667,-0.067333,99119.414,9.640,185.270,37.4628730,126.9586440,0.11,139.800,16,11,44,88,12,0.95,63.12
185413551,5.743257,-7.050938,5.640271,-0.084069,0.043167,-0.009593,-0.436000,1.071000,-0.063667,99119.414,9.640,185.270,37.4628730,126.9586440,0.11,139.900,16,11,44,88,12,0.95,63.12
185449023,5.771997,-7.050938,5.578001,-0.084069,0.042900,-0.009060,-0.439000,1.068667,-0.065667,99119.414,9.640,185.270,37.4628730,126.9586440,0.13,139.900,16,11,44,92,12,0.95,63.12
185453617,5.767207,-7.065308,5.664221,-0.084202,0.040502,-0.008793,-0.437000,1.067667,-0.069000,99119.414,9.640,185.270,37.4628730,126.9586440,0.13,139.900,16,11,44,92,12,0.95,63.12
185497324,5.743257,-7.072493,5.728887,-0.084469,0.040636,-0.007594,-0.439000,1.068667,-0.063667,99119.766,9.630,185.240,37.4628730,126.9586440,0.17,139.900,16,11,44,96,12,0.95,63.12
185501918,5.745652,-7.079678,5.709727,-0.084069,0.041835,-0.007994,-0.440667,1.066000,-0.064333,99119.766,9.630,185.240,37.4628730,126.9586440,0.17,139.900,16,11,44,96,12,0.95,63.12
185530681,5.776787,-7.053333,5.573211,-0.083802,0.039170,-0.006262,-0.437667,1.069333,-0.065667,99119.766,9.630,185.240,37.4628730,126.9586440,0.06,139.900,16,11,45,0,12,0.95,63.12
185535279,5.815108,-7.098838,5.676197,-0.086067,0.043833,-0.007594,-0.440000,1.069333,-0.064333,99121.688,9.630,185.077,37.4628730,126.9586440,0.06,139.900,16,11,45,0,12,0.95,63.12
185570894,5.815108,-7.029383,5.611531,-0.084868,0.040769,-0.007861,-0.438667,1.067000,-0.062667,99121.688,9.630,185.077,37.4628730,126.9586440,0.04,139.900,16,11,45,4,12,0.95,63.12
185575500,5.719307,-7.036568,5.683382,-0.083669,0.040502,-0.008127,-0.440000,1.064333,-0.066667,99121.688,9.630,185.077,37.4628730,126.9586440,0.04,139.900,16,11,45,4,12,0.95,63.12
185614699,5.791157,-7.034173,5.594766,-0.083136,0.040103,-0.005063,-0.438667,1.067000,-0.062667,99123.781,9.640,184.900,37.4628730,126.9586440,0.07,139.900,16,11,45,8,12,0.95,63.12
185619301,5.788763,-7.007827,5.589976,-0.082603,0.040236,-0.010392,-0.438667,1.067000,-0.062667,99123.781,9.640,184.900,37.4628730,126.9586440,0.07,139.900,16,11,45,8,12,0.95,63.12
185650808,5.783972,-7.048543,5.580396,-0.085934,0.042634,-0.010525,-0.438667,1.066000,-0.064333,99123.781,9.640,184.900,37.4628728,126.9586440,0.09,139.900,16,11,45,12,12,0.95,63.12
185655389,5.805528,-7.077283,5.546865,-0.083936,0.040636,-0.010126,-0.439000,1.067667,-0.062667,99123.781,9.640,184.900,37.4628728,126.9586440,0.09,139.900,16,11,45,12,12,0.95,63.12
185690658,5.748047,-7.029383,5.570816,-0.081538,0.041835,-0.009193,-0.438667,1.065333,-0.062667,99122.438,9.640,185.014,37.4628728,126.9586440,0.15,139.900,16,11,45,16,12,0.95,63.12
185695261,5.733677,-7.110813,5.601951,-0.083003,0.041435,-0.006928,-0.436000,1.067000,-0.062000,99122.438,9.640,185.014,37.4628728,126.9586440,0.15,139.900,16,11,45,16,12,0.95,63.12
185730892,5.831873,-7.038963,5.566026,-0.085268,0.042368,-0.008660,-0.435333,1.069333,-0.062667,99120.922,9.640,185.142,37.4628728,126.9586440,0.04,139.900,16,11,45,20,12,0.95,63.12
185735482,5.755232,-7.015013,5.680986,-0.082204,0.041701,-0.009060,-0.440000,1.066000,-0.067333,99120.922,9.640,185.142,37.4628728,126.9586440,0.04,139.900,16,11,45,20,12,0.95,63.12
185770572,5.697752,-7.089258,5.561235,-0.083403,0.043966,-0.007461,-0.438667,1.067667,-0.062667,99120.922,9.640,185.142,37.4628728,126.9586442,0.04,139.900,16,11,45,24,12,0.95,63.12
185775163,5.774392,-7.101233,5.652246,-0.086067,0.040636,-0.007861,-0.438667,1.065333,-0.064333,99120.922,9.640,185.142,37.4628728,126.9586442,0.04,139.900,16,11,45,24,12,0.95,63.12
185810432,5.771997,-7.053333,5.637876,-0.083802,0.043966,-0.008260,-0.442333,1.069333,-0.068333,99123.859,9.640,184.893,37.4628728,126.9586442,0.04,139.900,16,11,45,28,12,0.95,63.12
185815042,5.719307,-7.053333,5.604346,-0.084735,0.042767,-0.007861,-0.439000,1.067000,-0.062000,99123.859,9.640,184.893,37.4628728,126.9586442,0.04,139.900,16,11,45,28,12,0.95,63.12
185850669,5.771997,-7.074888,5.661827,-0.085135,0.043433,-0.009326,-0.440000,1.067667,-0.062667,99123.859,9.640,184.893,37.4628728,126.9586442,0.06,139.900,16,11,45,32,12,0.95,63.12
185855257,5.728887,-7.043753,5.604346,-0.084868,0.041835,-0.009726,-0.437667,1.067667,-0.065667,99123.109,9.640,184.957,37.4628728,126.9586442,0.06,140.000,16,11,45,32,12,0.95,63.12
185889815,5.783972,-7.089258,5.635481,-0.082337,0.042234,-0.007594,-0.441667,1.066000,-0.065667,99123.109,9.640,184.957,37.4628728,126.9586440,0.22,140.000,16,11,45,36,12,0.95,63.12
185894412,5.776787,-7.031778,5.623506,-0.083270,0.038904,-0.010126,-0.441667,1.066000,-0.065667,99123.109,9.640,184.957,37.4628728,126.9586440,0.22,140.000,16,11,45,36,12,0.95,63.12
185928900,5.786367,-7.084468,5.640271,-0.083136,0.040236,-0.008793,-0.433667,1.067667,-0.062667,99126.469,9.640,184.672,37.4628728,126.9586440,0.09,140.000,16,11,45,40,12,0.95,63.12
185933482,5.762417,-7.079678,5.556446,-0.081804,0.040369,-0.007727,-0.437667,1.067667,-0.062667,99126.469,9.640,184.672,37.4628728,126.9586440,0.09,140.000,16,11,45,40,12,0.95,63.12
185969810,5.779182,-7.029383,5.657036,-0.083669,0.043700,-0.009726,-0.436000,1.064333,-0.063667,99126.469,9.640,184.672,37.4628727,126.9586440,0.19,140.000,16,11,45,44,12,0.95,63.12
185974348,5.788763,-7.091653,5.633086,-0.084602,0.040236,-0.007727,-0.438667,1.068667,-0.063667,99126.469,9.640,184.672,37.4628727,126.9586440,0.19,140.000,16,11,45,44,12,0.95,63.12
186010592,5.788763,-7.000642,5.537285,-0.085934,0.040502,-0.007727,-0.434333,1.067000,-0.062000,99124.281,9.640,184.857,37.4628727,126.9586440,0.26,140.000,16,11,45,48,12,0.95,63.12
186015170,5.736072,-7.003037,5.671406,-0.082470,0.041168,-0.007328,-0.434333,1.067000,-0.062000,99124.281,9.640,184.857,37.4628727,126.9586440,0.26,140.000,16,11,45,48,12,0.95,63.12
186050664,5.771997,-7.022198,5.601951,-0.081804,0.041968,-0.009593,-0.437000,1.069333,-0.064333,99123.430,9.640,184.930,37.4628727,126.9586440,0.04,140.000,16,11,45,52,12,0.95,63.12
186055235,5.752837,-7.053333,5.582791,-0.083403,0.042101,-0.007727,-0.437000,1.062667,-0.063667,99123.430,9.640,184.930,37.4628727,126.9586440,0.04,140.000,16,11,45,52,12,0.95,63.12
186090585,5.704937,-7.101233,5.609136,-0.085268,0.042234,-0.008127,-0.439000,1.069333,-0.067333,99123.430,9.640,184.930,37.4628727,126.9586440,0.13,140.000,16,11,45,56,12,0.95,63.12
186095154,5.764812,-7.101233,5.642666,-0.085668,0.040369,-0.008926,-0.440000,1.066000,-0.065667,99123.430,9.640,184.930,37.4628727,126.9586440,0.13,140.000,16,11,45,56,12,0.95,63.12
186130429,5.748047,-7.046148,5.647456,-0.084069,0.043700,-0.010392,-0.440000,1.069333,-0.063667,99125.875,9.640,184.722,37.4628727,126.9586440,0.15,140.000,16,11,45,60,12,0.95,63.12
186134974,5.783972,-7.041358,5.733677,-0.084202,0.044632,-0.008926,-0.437000,1.068667,-0.065667,99125.875,9.640,184.722,37.4628727,126.9586440,0.15,140.000,16,11,45,60,12,0.95,63.12
186170535,5.788763,-7.031778,5.604346,-0.082603,0.042634,-0.011058,-0.438667,1.068667,-0.064333,99125.875,9.640,184.722,37.4628725,126.9586440,0.02,140.000,16,11,45,64,12,0.95,63.12
186175066,5.803133,-7.062913,5.621111,-0.085268,0.040902,-0.008127,-0.439000,1.065333,-0.062667,99125.875,9.640,184.722,37.4628725,126.9586440,0.02,140.000,16,11,45,64,12,0.95,63.12
186210472,5.733677,-7.101233,5.649851,-0.083003,0.042501,-0.007727,-0.440667,1.065333,-0.062000,99125.781,9.640,184.730,37.4628725,126.9586440,0.11,140.000,16,11,45,68,12,0.95,63.12
186215063,5.764812,-7.048543,5.573211,-0.085801,0.039836,-0.010392,-0.436000,1.067000,-0.063667,99125.781,9.640,184.730,37.4628725,126.9586440,0.11,140.000,16,11,45,68,12,0.95,63.12
186249864,5.774392,-7.062913,5.582791,-0.083270,0.040636,-0.010392,-0.439000,1.068667,-0.062000,99123.609,9.640,184.914,37.4628725,126.9586440,0.07,140.000,16,11,45,72,12,0.95,63.12
186254438,5.776787,-7.036568,5.558841,-0.085135,0.040902,-0.007194,-0.438667,1.067000,-0.062000,99123.609,9.640,184.914,37.4628725,126.9586440,0.07,140.100,16,11,45,72,12,0.95,63.12
186289958,5.752837,-7.094048,5.606741,-0.084868,0.040636,-0.008260,-0.434333,1.064333,-0.061000,99123.609,9.640,184.914,37.4628725,126.9586438,0.13,140.100,16,11,45,76,12,0.95,63.12
186294553,5.776787,-6.995852,5.589976,-0.084735,0.042368,-0.007594,-0.437000,1.067000,-0.062667,99123.609,9.640,184.914,37.4628725,126.9586438,0.13,140.100,16,11,45,76,12,0.95,63.12
186331944,5.757627,-7.043753,5.623506,-0.081804,0.041568,-0.009859,-0.437000,1.067667,-0.064333,99124.695,9.640,184.822,37.4628725,126.9586438,0.13,140.100,16,11,45,80,12,0.95,63.12
186336476,5.733677,-7.048543,5.637876,-0.083536,0.038770,-0.007594,-0.434333,1.063667,-0.062667,99124.695,9.640,184.822,37.4628725,126.9586438,0.13,140.100,16,11,45,80,12,0.95,63.12
186370767,5.740862,-7.067703,5.604346,-0.085401,0.043567,-0.009992,-0.438667,1.068667,-0.061000,99122.094,9.640,185.043,37.4628725,126.9586438,0.11,140.100,16,11,45,84,12,0.95,63.12
186375304,5.726492,-7.065308,5.724097,-0.085135,0.040502,-0.010525,-0.438667,1.069333,-0.064333,99122.094,9.640,185.043,37.4628725,126.9586438,0.11,140.100,16,11,45,84,12,0.95,63.12
186408992,5.755232,-7.096443,5.657036,-0.083003,0.043567,-0.008527,-0.437667,1.066000,-0.058333,99122.094,9.640,185.043,37.4628723,126.9586438,0.07,140.100,16,11,45,88,12,0.95,63.12
186413485,5.743257,-7.026988,5.599556,-0.085268,0.038504,-0.009060,-0.436000,1.065333,-0.062000,99122.094,9.640,185.043,37.4628723,126.9586438,0.07,140.100,16,11,45,88,12,0.95,63.12
186449030,5.752837,-7.022198,5.623506,-0.083536,0.039836,-0.008926,-0.441667,1.067667,-0.065667,99127.203,9.640,184.610,37.4628723,126.9586438,0.19,140.100,16,11,45,92,12,0.95,63.12
186453584,5.740862,-7.043753,5.573211,-0.083403,0.042767,-0.006928,-0.434333,1.067000,-0.063667,99127.203,9.640,184.610,37.4628723,126.9586438,0.19,140.100,16,11,45,92,12,0.95,63.12
186497962,5.798343,-7.094048,5.573211,-0.085268,0.045698,-0.005462,-0.438667,1.072000,-0.063667,99127.383,9.640,184.595,37.4628723,126.9586438,0.11,140.100,16,11,45,96,12,0.95,63.12
186502556,5.750442,-7.046148,5.673801,-0.084868,0.041435,-0.009193,-0.440000,1.067000,-0.061000,99127.383,9.640,184.595,37.4628723,126.9586438,0.11,140.100,16,11,45,96,12,0.95,63.12
186530667,5.719307,-7.022198,5.589976,-0.084202,0.039037,-0.007328,-0.437667,1.064333,-0.062000,99127.383,9.640,184.595,37.4628723,126.9586438,0.15,140.100,16,11,46,0,12,0.95,63.12
186535201,5.767207,-7.050938,5.628296,-0.083270,0.043567,-0.008660,-0.438667,1.066000,-0.062667,99127.383,9.640,184.595,37.4628723,126.9586438,0.15,140.100,16,11,46,0,12,0.95,63.12
186571021,5.786367,-7.029383,5.582791,-0.082603,0.043966,-0.007861,-0.438667,1.068667,-0.069000,99130.570,9.640,184.324,37.4628723,126.9586440,0.31,140.100,16,11,46,4,12,0.95,63.12
186575550,5.736072,-7.050938,5.714517,-0.084069,0.040636,-0.008260,-0.441667,1.066000,-0.063667,99130.570,9.640,184.324,37.4628723,126.9586440,0.31,140.100,16,11,46,4,12,0.95,63.12
186615049,5.726492,-7.015013,5.568420,-0.084069,0.042634,-0.009193,-0.440667,1.067667,-0.065667,99130.570,9.640,184.324,37.4628723,126.9586440,0.33,140.100,16,11,46,8,12,0.95,63.12
186619578,5.776787,-7.106023,5.642666,-0.083802,0.040769,-0.008926,-0.439000,1.070333,-0.066667,99130.570,9.640,184.324,37.4628723,126.9586440,0.33,140.100,16,11,46,8,12,0.95,63.12
186651001,5.769602,-7.022198,5.561235,-0.083003,0.041302,-0.008660,-0.437000,1.066000,-0.063667,99125.438,9.640,184.759,37.4628723,126.9586440,0.07,140.100,16,11,46,12,12,0.95,63.12
186655536,5.798343,-7.050938,5.539680,-0.082070,0.041302,-0.006795,-0.439000,1.068667,-0.066667,99125.438,9.640,184.759,37.4628723,126.9586440,0.07,140.100,16,11,46,12,12,0.95,63.12
186690861,5.762417,-7.065308,5.573211,-0.083802,0.041302,-0.008660,-0.435333,1.069333,-0.064333,99124.695,9.640,184.822,37.4628722,126.9586438,0.24,140.100,16,11,46,16,12,0.95,63.12
186695413,5.760022,-7.017407,5.575606,-0.082737,0.042900,-0.006262,-0.439000,1.065333,-0.061000,99124.695,9.640,184.822,37.4628722,126.9586438,0.24,140.100,16,11,46,16,12,0.95,63.12
186730766,5.760022,-7.067703,5.587581,-0.082870,0.039703,-0.010259,-0.437000,1.071000,-0.069000,99124.695,9.640,184.822,37.4628722,126.9586438,0.26,140.100,16,11,46,20,12,0.95,63.12
186735323,5.743257,-7.070098,5.587581,-0.085002,0.040769,-0.009859,-0.435333,1.070333,-0.066667,99124.695,9.640,184.822,37.4628722,126.9586438,0.26,140.100,16,11,46,20,12,0.95,63.12
186770886,5.783972,-7.031778,5.566026,-0.085401,0.041168,-0.007994,-0.435333,1.069333,-0.064333,99127.297,9.640,184.602,37.4628722,126.9586438,0.17,140.100,16,11,46,24,12,0.95,63.12
186775472,5.714517,-7.067703,5.690567,-0.081937,0.039969,-0.010658,-0.435333,1.069333,-0.064333,99127.297,9.640,184.602,37.4628722,126.9586438,0.17,140.100,16,11,46,24,12,0.95,63.12
186811740,5.815108,-7.072493,5.664221,-0.083536,0.041835,-0.009326,-0.438667,1.065333,-0.063667,99127.297,9.640,184.602,37.4628722,126.9586438,0.06,140.100,16,11,46,28,12,0.95,63.12
186816323,5.774392,-7.082073,5.601951,-0.084602,0.040902,-0.008127,-0.439000,1.068667,-0.064333,99127.297,9.640,184.602,37.4628722,126.9586438,0.06,140.200,16,11,46,28,12,0.95,63.12
186850754,5.779182,-7.029383,5.628296,-0.084069,0.040369,-0.010925,-0.439000,1.064333,-0.066667,99124.617,9.640,184.829,37.4628722,126.9586438,0.02,140.200,16,11,46,32,12,0.95,63.12
186855341,5.805528,-7.031778,5.657036,-0.084735,0.042368,-0.010126,-0.439000,1.068667,-0.064333,99124.617,9.640,184.829,37.4628722,126.9586438,0.02,140.200,16,11,46,32,12,0.95,63.12
186892750,5.829478,-7.017407,5.573211,-0.084335,0.041435,-0.010126,-0.440000,1.068667,-0.069000,99125.367,9.640,184.765,37.4628722,126.9586438,0.17,140.200,16,11,46,36,12,0.95,63.12
186930032,5.803133,-7.101233,5.654641,-0.085534,0.043966,-0.008260,-0.438667,1.067667,-0.068333,99125.367,9.640,184.765,37.4628720,126.9586438,0.13,140.200,16,11,46,40,12,0.95,63.12
186934646,5.764812,-7.089258,5.623506,-0.084469,0.043567,-0.009193,-0.438667,1.069333,-0.070333,99125.367,9.640,184.765,37.4628720,126.9586438,0.13,140.200,16,11,46,40,12,0.95,63.12
186971016,5.810318,-7.086863,5.611531,-0.083136,0.042101,-0.007461,-0.437667,1.067000,-0.063667,99127.125,9.640,184.616,37.4628720,126.9586438,0.07,140.200,16,11,46,44,12,0.95,63.12
186975627,5.731282,-7.082073,5.654641,-0.086734,0.043433,-0.007861,-0.437667,1.069333,-0.062000,99127.125,9.640,184.616,37.4628720,126.9586438,0.07,140.200,16,11,46,44,12,0.95,63.12
187010795,5.750442,-7.074888,5.702542,-0.083536,0.040369,-0.009326,-0.437000,1.069333,-0.062000,99127.125,9.640,184.616,37.4628720,126.9586437,0.17,140.200,16,11,46,48,12,0.95,63.12
187015402,5.803133,-7.038963,5.613926,-0.084335,0.042234,-0.008260,-0.437000,1.072000,-0.066667,99126.633,9.640,184.658,37.4628720,126.9586437,0.17,140.200,16,11,46,48,12,0.95,63.12
187051018,5.748047,-7.062913,5.601951,-0.085002,0.042234,-0.007994,-0.436000,1.069333,-0.064333,99126.633,9.640,184.658,37.4628720,126.9586437,0.07,140.200,16,11,46,52,12,0.95,63.12
187055631,5.764812,-7.019803,5.580396,-0.083003,0.041835,-0.009593,-0.439000,1.065333,-0.065667,99126.633,9.640,184.658,37.4628720,126.9586437,0.07,140.200,16,11,46,52,12,0.95,63.12
187090975,5.810318,-7.070098,5.657036,-0.085401,0.038504,-0.006129,-0.440000,1.067000,-0.066667,99123.203,9.630,184.949,37.4628720,126.9586437,0.09,140.200,16,11,46,56,12,0.95,63.12
187095576,5.728887,-7.034173,5.573211,-0.085401,0.042101,-0.008926,-0.440000,1.068667,-0.062667,99123.203,9.630,184.949,37.4628720,126.9586437,0.09,140.200,16,11,46,56,12,0.95,63.12
187130823,5.748047,-7.096443,5.585186,-0.086867,0.042767,-0.009859,-0.439000,1.068667,-0.065667,99123.203,9.630,184.949,37.4628718,126.9586435,0.15,140.200,16,11,46,60,12,0.95,63.12
187135444,5.815108,-7.072493,5.688172,-0.085534,0.042368,-0.006129,-0.440000,1.070333,-0.063667,99123.203,9.630,184.949,37.4628718,126.9586435,0.15,140.200,16,11,46,60,12,0.95,63.12
187170935,5.757627,-7.043753,5.719307,-0.083936,0.041835,-0.005729,-0.440000,1.071000,-0.066667,99127.547,9.640,184.581,37.4628718,126.9586435,0.13,140.200,16,11,46,64,12,0.95,63.12
187175541,5.781578,-7.086863,5.582791,-0.082337,0.041302,-0.007194,-0.441667,1.067667,-0.063667,99127.547,9.640,184.581,37.4628718,126.9586435,0.13,140.300,16,11,46,64,12,0.95,63.12
187210850,5.762417,-7.024592,5.635481,-0.085534,0.040502,-0.009593,-0.435333,1.068667,-0.061000,99127.305,9.640,184.601,37.4628718,126.9586435,0.07,140.300,16,11,46,68,12,0.95,63.12
187215459,5.786367,-7.065308,5.680986,-0.085268,0.043034,-0.010126,-0.439000,1.071000,-0.064333,99127.305,9.640,184.601,37.4628718,126.9586435,0.07,140.300,16,11,46,68,12,0.95,63.12
187250814,5.748047,-7.127578,5.743257,-0.082603,0.041302,-0.007861,-0.438667,1.064333,-0.058333,99127.305,9.640,184.601,37.4628718,126.9586433,0.15,140.300,16,11,46,72,12,0.95,63.12
187255399,5.783972,-7.046148,5.664221,-0.083802,0.042900,-0.010525,-0.438667,1.068667,-0.059000,99127.305,9.640,184.601,37.4628718,126.9586433,0.15,140.300,16,11,46,72,12,0.95,63.12
187291104,5.779182,-7.019803,5.635481,-0.084335,0.041835,-0.009193,-0.438667,1.068667,-0.063667,99127.047,9.640,184.623,37.4628717,126.9586433,0.17,140.300,16,11,46,76,12,0.95,63.12
187295731,5.755232,-7.053333,5.635481,-0.083802,0.040769,-0.008926,-0.439000,1.071000,-0.064333,99127.047,9.640,184.623,37.4628717,126.9586433,0.17,140.300,16,11,46,76,12,0.95,63.12
187333532,5.786367,-7.041358,5.587581,-0.084868,0.040636,-0.006928,-0.438667,1.067667,-0.065667,99127.047,9.640,184.623,37.4628717,126.9586433,0.24,140.300,16,11,46,80,12,0.95,63.12
187338113,5.769602,-7.043753,5.592371,-0.083536,0.039436,-0.007861,-0.438667,1.067667,-0.065667,99123.594,9.640,184.916,37.4628717,126.9586433,0.24,140.300,16,11,46,80,12,0.95,63.12
187369637,5.815108,-7.091653,5.582791,-0.085534,0.043433,-0.008394,-0.437000,1.070333,-0.062667,99123.594,9.640,184.916,37.4628717,126.9586432,0.24,140.300,16,11,46,84,12,0.95,63.12
187374252,5.803133,-7.060518,5.764812,-0.083536,0.040369,-0.010392,-0.439000,1.071000,-0.064333,99123.594,9.640,184.916,37.4628717,126.9586432,0.24,140.300,16,11,46,84,12,0.95,63.12
187409974,5.752837,-7.058123,5.726492,-0.084335,0.040103,-0.008260,-0.433667,1.067000,-0.061000,99124.531,9.640,184.836,37.4628715,126.9586432,0.17,140.300,16,11,46,88,12,0.95,63.12
187414546,5.724097,-7.015013,5.587581,-0.084602,0.041568,-0.007861,-0.434333,1.064333,-0.060000,99124.531,9.640,184.836,37.4628715,126.9586432,0.17,140.300,16,11,46,88,12,0.95,63.12
187451009,5.769602,-7.015013,5.589976,-0.085401,0.039703,-0.008127,-0.437000,1.072000,-0.063667,99124.531,9.640,184.836,37.4628715,126.9586432,0.06,140.300,16,11,46,92,12,0.95,63.12
187455620,5.786367,-7.053333,5.549261,-0.084069,0.044499,-0.007727,-0.437000,1.072000,-0.063667,99124.531,9.640,184.836,37.4628715,126.9586432,0.06,140.400,16,11,46,92,12,0.95,63.12
187497903,5.771997,-7.074888,5.611531,-0.084069,0.039836,-0.009060,-0.434333,1.065333,-0.066667,99129.305,9.640,184.432,37.4628715,126.9586433,0.04,140.400,16,11,46,96,12,0.95,63.12
187502485,5.736072,-7.015013,5.664221,-0.084202,0.043433,-0.010126,-0.434333,1.067000,-0.066667,99129.305,9.640,184.432,37.4628715,126.9586433,0.04,140.300,16,11,46,96,12,0.95,63.12
187531892,5.779182,-7.036568,5.683382,-0.084335,0.039570,-0.010259,-0.440000,1.067667,-0.063667,99127.047,9.640,184.623,37.4628715,126.9586433,0.02,140.300,16,11,47,0,12,0.95,63.12
187536487,5.798343,-7.043753,5.664221,-0.085401,0.042234,-0.009593,-0.437000,1.071000,-0.058333,99127.047,9.640,184.623,37.4628715,126.9586433,0.02,140.300,16,11,47,0,12,0.95,63.12
187571090,5.817502,-7.077283,5.592371,-0.082070,0.039969,-0.009992,-0.436000,1.067667,-0.061000,99127.047,9.640,184.623,37.4628715,126.9586433,0.06,140.300,16,11,47,4,12,0.95,63.12
187575705,5.740862,-7.077283,5.673801,-0.085268,0.040236,-0.005862,-0.440000,1.069333,-0.062000,99127.047,9.640,184.623,37.4628715,126.9586433,0.06,140.400,16,11,47,4,12,0.95,63.12
187615472,5.848638,-7.096443,5.649851,-0.082337,0.046498,-0.008793,-0.435333,1.068667,-0.064333,99129.656,9.640,184.402,37.4628715,126.9586432,0.06,140.400,16,11,47,8,12,0.95,63.12
187620086,5.848638,-7.038963,5.642666,-0.085135,0.040636,-0.009459,-0.435333,1.068667,-0.064333,99129.656,9.640,184.402,37.4628715,126.9586432,0.06,140.400,16,11,47,8,12,0.95,63.12
187650994,5.697752,-7.060518,5.618716,-0.084868,0.042501,-0.008527,-0.437000,1.067667,-0.065667,99129.656,9.640,184.402,37.4628715,126.9586432,0.07,140.400,16,11,47,12,12,0.95,63.12
187655620,5.764812,-7.058123,5.702542,-0.081271,0.041568,-0.007461,-0.437000,1.067667,-0.065667,99129.656,9.640,184.402,37.4628715,126.9586432,0.07,140.400,16,11,47,12,12,0.95,63.12
187690907,5.743257,-6.991062,5.544470,-0.082337,0.042767,-0.008660,-0.440000,1.067000,-0.065667,99128.055,9.640,184.538,37.4628713,126.9586432,0.07,140.400,16,11,47,16,12,0.95,63.12
187695502,5.781578,-7.079678,5.585186,-0.082870,0.042634,-0.007994,-0.440000,1.067000,-0.065667,99128.055,9.640,184.538,37.4628713,126.9586432,0.07,140.400,16,11,47,16,12,0.95,63.12
187730701,5.733677,-7.115603,5.664221,-0.084602,0.042900,-0.009992,-0.439000,1.067667,-0.067333,99128.219,9.640,184.524,37.4628715,126.9586433,0.02,140.400,16,11,47,20,12,0.95,63.12
187735301,5.810318,-7.038963,5.649851,-0.083003,0.039836,-0.007594,-0.439000,1.066000,-0.064333,99128.219,9.640,184.524,37.4628715,126.9586433,0.02,140.400,16,11,47,20,12,0.95,63.12
187770908,5.748047,-7.055728,5.657036,-0.083536,0.043300,-0.008793,-0.440000,1.073667,-0.060000,99128.219,9.640,184.524,37.4628715,126.9586433,0.11,140.400,16,11,47,24,12,0.95,63.12
187775528,5.779182,-7.067703,5.774392,-0.084868,0.042234,-0.009593,-0.443333,1.070333,-0.061000,99128.219,9.640,184.524,37.4628715,126.9586433,0.11,140.400,16,11,47,24,12,0.95,63.12
187810693,5.767207,-7.026988,5.575606,-0.086867,0.043300,-0.011325,-0.438667,1.068667,-0.065667,99128.562,9.640,184.495,37.4628715,126.9586433,0.06,140.400,16,11,47,28,12,0.95,63.12
187815307,5.798343,-7.055728,5.594766,-0.085801,0.040369,-0.009459,-0.438667,1.065333,-0.063667,99128.562,9.640,184.495,37.4628715,126.9586433,0.06,140.400,16,11,47,28,12,0.95,63.12
187850027,5.748047,-7.101233,5.647456,-0.085801,0.039436,-0.008260,-0.436000,1.066000,-0.062667,99128.562,9.640,184.495,37.4628713,126.9586432,0.06,140.400,16,11,47,32,12,0.95,63.12
187854546,5.738467,-7.060518,5.630691,-0.081271,0.042368,-0.009859,-0.436000,1.066000,-0.062000,99125.031,9.640,184.794,37.4628713,126.9586432,0.06,140.400,16,11,47,32,12,0.95,63.12
187888851,5.781578,-7.019803,5.637876,-0.085801,0.041435,-0.008926,-0.434333,1.068667,-0.064333,99125.031,9.640,184.794,37.4628713,126.9586432,0.11,140.400,16,11,47,36,12,0.95,63.12
187893462,5.690567,-7.110813,5.743257,-0.083536,0.042234,-0.007194,-0.437667,1.069333,-0.060000,99125.031,9.640,184.794,37.4628713,126.9586432,0.11,140.400,16,11,47,36,12,0.95,63.12
187929077,5.709727,-7.060518,5.601951,-0.085135,0.043966,-0.008394,-0.436000,1.065333,-0.062667,99124.266,9.640,184.859,37.4628712,126.9586432,0.11,140.400,16,11,47,40,12,0.95,63.12
187933700,5.757627,-7.015013,5.688172,-0.081937,0.040236,-0.009459,-0.436000,1.065333,-0.062667,99124.266,9.640,184.859,37.4628712,126.9586432,0.11,140.400,16,11,47,40,12,0.95,63.12
187970824,5.745652,-7.048543,5.599556,-0.083936,0.042368,-0.011458,-0.435333,1.068667,-0.062667,99124.266,9.640,184.859,37.4628712,126.9586430,0.06,140.400,16,11,47,44,12,0.95,63.12
187975447,5.788763,-7.055728,5.621111,-0.085401,0.041035,-0.009326,-0.437667,1.069333,-0.066667,99124.266,9.640,184.859,37.4628712,126.9586430,0.06,140.500,16,11,47,44,12,0.95,63.12
188011042,5.815108,-7.022198,5.678592,-0.083936,0.041302,-0.009859,-0.440667,1.067667,-0.065667,99125.367,9.640,184.765,37.4628712,126.9586430,0.07,140.500,16,11,47,48,12,0.95,63.12
188015680,5.831873,-7.060518,5.578001,-0.087133,0.042234,-0.008394,-0.441667,1.072000,-0.062667,99125.367,9.640,184.765,37.4628712,126.9586430,0.07,140.500,16,11,47,48,12,0.95,63.12
188050711,5.807923,-7.110813,5.664221,-0.084069,0.044899,-0.012124,-0.438667,1.063667,-0.064333,99127.961,9.640,184.546,37.4628712,126.9586428,0.22,140.500,16,11,47,52,12,0.95,63.12
188055345,5.776787,-7.034173,5.542076,-0.082204,0.043300,-0.008926,-0.438667,1.066000,-0.063667,99127.961,9.640,184.546,37.4628712,126.9586428,0.22,140.500,16,11,47,52,12,0.95,63.12
188090634,5.771997,-7.012618,5.697752,-0.085401,0.042234,-0.006795,-0.443333,1.068667,-0.067333,99127.961,9.640,184.546,37.4628712,126.9586428,0.22,140.500,16,11,47,56,12,0.95,63.12
188095225,5.788763,-7.022198,5.704937,-0.081538,0.041568,-0.009593,-0.436000,1.067667,-0.065667,99127.961,9.640,184.546,37.4628712,126.9586428,0.22,140.500,16,11,47,56,12,0.95,63.12
188130971,5.712122,-7.024592,5.623506,-0.085268,0.040902,-0.007194,-0.440000,1.067000,-0.068333,99126.117,9.640,184.702,37.4628712,126.9586428,0.07,140.500,16,11,47,60,12,0.95,63.12
188135527,5.728887,-7.094048,5.592371,-0.085268,0.043567,-0.008793,-0.440667,1.067667,-0.065667,99126.117,9.640,184.702,37.4628712,126.9586428,0.07,140.500,16,11,47,60,12,0.95,63.12
188170884,5.812713,-7.079678,5.654641,-0.085401,0.041035,-0.009459,-0.437000,1.067000,-0.066667,99126.117,9.640,184.702,37.4628710,126.9586428,0.09,140.500,16,11,47,64,12,0.95,63.12
188175504,5.798343,-7.043753,5.657036,-0.082737,0.043567,-0.007328,-0.437000,1.068667,-0.067333,99125.523,9.640,184.752,37.4628710,126.9586428,0.09,140.500,16,11,47,64,12,0.95,63.12
188210565,5.700147,-7.065308,5.601951,-0.082204,0.040902,-0.009326,-0.437000,1.065333,-0.064333,99125.523,9.640,184.752,37.4628710,126.9586428,0.07,140.500,16,11,47,68,12,0.95,63.12
188215150,5.776787,-7.065308,5.611531,-0.083403,0.040769,-0.006262,-0.437000,1.065333,-0.061000,99125.523,9.640,184.752,37.4628710,126.9586428,0.07,140.500,16,11,47,68,12,0.95,63.12
188250842,5.721702,-7.053333,5.580396,-0.085668,0.040236,-0.007727,-0.438667,1.063667,-0.067333,99122.758,9.640,184.987,37.4628710,126.9586428,0.13,140.500,16,11,47,72,12,0.95,63.12
188255418,5.779182,-7.022198,5.587581,-0.083669,0.041835,-0.008260,-0.437000,1.066000,-0.068333,99122.758,9.640,184.987,37.4628710,126.9586428,0.13,140.500,16,11,47,72,12,0.95,63.12
188290856,5.800737,-7.031778,5.594766,-0.084602,0.039703,-0.007594,-0.439000,1.068667,-0.066667,99122.758,9.640,184.987,37.4628710,126.9586428,0.09,140.500,16,11,47,76,12,0.95,63.12
188295377,5.788763,-7.036568,5.604346,-0.082470,0.042368,-0.008260,-0.440000,1.067667,-0.061000,99122.758,9.640,184.987,37.4628710,126.9586428,0.09,140.500,16,11,47,76,12,0.95,63.12
188330601,5.771997,-7.108418,5.647456,-0.086067,0.041568,-0.010925,-0.437000,1.065333,-0.062667,99126.555,9.630,184.665,37.4628710,126.9586428,0.02,140.500,16,11,47,80,12,0.95,63.12
188335175,5.783972,-7.067703,5.575606,-0.085401,0.043034,-0.005862,-0.437000,1.065333,-0.062667,99126.555,9.630,184.665,37.4628710,126.9586428,0.02,140.500,16,11,47,80,12,0.95,63.12
188369053,5.769602,-7.062913,5.661827,-0.084335,0.041701,-0.008793,-0.440000,1.069333,-0.062000,99122.852,9.640,184.979,37.4628710,126.9586428,0.0,140.500,16,11,47,84,12,0.95,63.12
188373616,5.767207,-7.106023,5.649851,-0.085268,0.038770,-0.007994,-0.442333,1.070333,-0.059000,99122.852,9.640,184.979,37.4628710,126.9586428,0.0,140.500,16,11,47,84,12,0.95,63.12
188409214,5.788763,-7.019803,5.621111,-0.082737,0.039836,-0.006129,-0.437667,1.062333,-0.069000,99122.852,9.640,184.979,37.4628708,126.9586427,0.06,140.500,16,11,47,88,12,0.95,63.12
188413712,5.781578,-7.067703,5.664221,-0.082470,0.041968,-0.007461,-0.440000,1.066000,-0.063667,99122.852,9.640,184.979,37.4628708,126.9586427,0.06,140.600,16,11,47,88,12,0.95,63.12
188450780,5.757627,-7.022198,5.604346,-0.086600,0.042634,-0.010392,-0.439000,1.069333,-0.064333,99122.680,9.640,184.993,37.4628708,126.9586427,0.04,140.600,16,11,47,92,12,0.95,63.12
188455351,5.767207,-7.072493,5.669012,-0.084069,0.040769,-0.006662,-0.439000,1.069333,-0.064333,99122.680,9.640,184.993,37.4628708,126.9586427,0.04,140.600,16,11,47,92,12,0.95,63.12
188497486,5.738467,-7.048543,5.613926,-0.081804,0.042900,-0.007994,-0.436000,1.066000,-0.064333,99123.016,9.640,184.965,37.4628708,126.9586427,0.04,140.600,16,11,47,96,12,0.95,63.12
188502015,5.712122,-7.065308,5.640271,-0.085135,0.041035,-0.007861,-0.435333,1.067667,-0.064333,99123.016,9.640,184.965,37.4628708,126.9586427,0.04,140.600,16,11,47,96,12,0.95,63.12
188530672,5.774392,-7.053333,5.587581,-0.083403,0.041835,-0.009459,-0.437000,1.071000,-0.066667,99123.016,9.640,184.965,37.4628708,126.9586427,0.13,140.600,16,11,48,0,12,0.95,63.12
188535277,5.791157,-7.067703,5.688172,-0.082337,0.040369,-0.006662,-0.437667,1.060667,-0.061000,99123.016,9.640,184.965,37.4628708,126.9586427,0.13,140.600,16,11,48,0,12,0.95,63.12
188571208,5.829478,-7.084468,5.657036,-0.083270,0.042634,-0.009060,-0.435333,1.067000,-0.062667,99123.352,9.640,184.936,37.4628708,126.9586427,0.15,140.600,16,11,48,4,12,0.95,63.12
188575775,5.824688,-7.022198,5.594766,-0.086467,0.041035,-0.006795,-0.435333,1.067000,-0.062667,99123.352,9.640,184.936,37.4628708,126.9586427,0.15,140.600,16,11,48,4,12,0.95,63.12
188615176,5.745652,-7.026988,5.542076,-0.083936,0.043567,-0.010259,-0.440000,1.067667,-0.062667,99123.352,9.640,184.936,37.4628708,126.9586427,0.11,140.600,16,11,48,8,12,0.95,63.12
188619784,5.738467,-7.060518,5.582791,-0.085268,0.040902,-0.004796,-0.434333,1.065333,-0.063667,99123.352,9.640,184.936,37.4628708,126.9586427,0.11,140.600,16,11,48,8,12,0.95,63.12
188650905,5.810318,-7.129973,5.637876,-0.085268,0.041302,-0.008260,-0.439000,1.068667,-0.062667,99124.281,9.640,184.857,37.4628707,126.9586427,0.07,140.600,16,11,48,12,12,0.95,63.12
188655514,5.752837,-7.043753,5.587581,-0.086867,0.041701,-0.006928,-0.437000,1.065333,-0.063667,99124.281,9.640,184.857,37.4628707,126.9586427,0.07,140.600,16,11,48,12,12,0.95,63.12
188690844,5.769602,-7.074888,5.640271,-0.084335,0.041168,-0.007061,-0.440000,1.066000,-0.062000,99124.109,9.640,184.872,37.4628707,126.9586427,0.02,140.600,16,11,48,16,12,0.95,63.12
188695444,5.783972,-7.048543,5.685777,-0.085268,0.041302,-0.009859,-0.440667,1.071000,-0.062000,99124.109,9.640,184.872,37.4628707,126.9586427,0.02,140.600,16,11,48,16,12,0.95,63.12
188731134,5.783972,-7.096443,5.618716,-0.084602,0.041168,-0.007727,-0.437667,1.067000,-0.063667,99124.109,9.640,184.872,37.4628707,126.9586427,0.02,140.600,16,11,48,20,12,0.95,63.12
188735770,5.776787,-7.010222,5.654641,-0.083802,0.040636,-0.007727,-0.437667,1.066000,-0.061000,99124.109,9.640,184.872,37.4628707,126.9586427,0.02,140.600,16,11,48,20,12,0.95,63.12
188770850,5.700147,-6.995852,5.609136,-0.086067,0.039170,-0.008926,-0.437000,1.069333,-0.062000,99125.703,9.640,184.737,37.4628707,126.9586425,0.11,140.600,16,11,48,24,12,0.95,63.12
188775460,5.779182,-7.055728,5.611531,-0.084202,0.040636,-0.006662,-0.438667,1.068667,-0.063667,99125.703,9.640,184.737,37.4628707,126.9586425,0.11,140.600,16,11,48,24,12,0.95,63.12
188810756,5.757627,-7.070098,5.570816,-0.084602,0.043167,-0.007328,-0.438667,1.067000,-0.059000,99125.703,9.640,184.737,37.4628707,126.9586425,0.17,140.600,16,11,48,28,12,0.95,63.12
188815390,5.791157,-7.048543,5.771997,-0.082470,0.039436,-0.007861,-0.440000,1.067000,-0.062000,99125.703,9.640,184.737,37.4628707,126.9586425,0.17,140.600,16,11,48,28,12,0.95,63.12
188849745,5.771997,-7.079678,5.580396,-0.084202,0.040236,-0.010126,-0.434333,1.068667,-0.061000,99126.531,9.640,184.667,37.4628707,126.9586425,0.26,140.600,16,11,48,32,12,0.95,63.12
188854367,5.791157,-7.077283,5.618716,-0.084335,0.040103,-0.011858,-0.438667,1.067000,-0.062667,99126.531,9.640,184.667,37.4628707,126.9586425,0.26,140.600,16,11,48,32,12,0.95,63.12
188893745,5.788763,-7.084468,5.647456,-0.083936,0.044766,-0.010392,-0.442333,1.066000,-0.065667,99124.016,9.640,184.880,37.4628707,126.9586425,0.24,140.700,16,11,48,36,12,0.95,63.12
188931133,5.800737,-7.110813,5.633086,-0.084069,0.039836,-0.007994,-0.434333,1.064333,-0.063667,99124.016,9.640,184.880,37.4628705,126.9586425,0.2,140.700,16,11,48,40,12,0.95,63.12
188935699,5.810318,-7.070098,5.592371,-0.084602,0.041968,-0.009060,-0.436000,1.067667,-0.064333,99124.016,9.640,184.880,37.4628705,126.9586425,0.2,140.700,16,11,48,40,12,0.95,63.12
188971897,5.791157,-7.046148,5.645061,-0.082737,0.041035,-0.009060,-0.434333,1.070333,-0.060000,99124.359,9.640,184.851,37.4628705,126.9586425,0.06,140.700,16,11,48,44,12,0.95,63.12
188976452,5.774392,-7.026988,5.640271,-0.084868,0.043300,-0.009193,-0.438667,1.068667,-0.064333,99124.359,9.640,184.851,37.4628705,126.9586425,0.06,140.700,16,11,48,44,12,0.95,63.12
189011991,5.733677,-7.043753,5.621111,-0.084335,0.042368,-0.010925,-0.439000,1.065333,-0.063667,99123.109,9.640,184.957,37.4628703,126.9586423,0.09,140.700,16,11,48,48,12,0.95,63.12
189016565,5.786367,-7.055728,5.671406,-0.084602,0.042634,-0.009726,-0.440000,1.067667,-0.061000,99123.109,9.640,184.957,37.4628703,126.9586423,0.09,140.700,16,11,48,48,12,0.95,63.12
189051942,5.860613,-6.986272,5.568420,-0.082337,0.042767,-0.007861,-0.435333,1.067667,-0.063667,99123.109,9.640,184.957,37.4628703,126.9586423,0.04,140.700,16,11,48,52,12,0.95,63.12
189056533,5.760022,-7.022198,5.630691,-0.083136,0.040103,-0.010259,-0.432667,1.069333,-0.063667,99123.109,9.640,184.957,37.4628703,126.9586423,0.04,140.700,16,11,48,52,12,0.95,63.12
189091173,5.764812,-7.101233,5.606741,-0.086334,0.041568,-0.006928,-0.438667,1.066000,-0.062667,99123.016,9.640,184.965,37.4628703,126.9586425,0.06,140.700,16,11,48,56,12,0.95,63.12
189095765,5.736072,-7.053333,5.628296,-0.082603,0.039303,-0.010925,-0.436000,1.067667,-0.062667,99123.016,9.640,184.965,37.4628703,126.9586425,0.06,140.700,16,11,48,56,12,0.95,63.12
189131001,5.793552,-7.062913,5.606741,-0.083403,0.040502,-0.007328,-0.437000,1.069333,-0.063667,99123.016,9.640,184.965,37.4628705,126.9586425,0.11,140.700,16,11,48,60,12,0.95,63.12
189135580,5.779182,-7.065308,5.570816,-0.084602,0.041035,-0.010525,-0.437667,1.070333,-0.066667,99123.016,9.640,184.965,37.4628705,126.9586425,0.11,140.700,16,11,48,60,12,0.95,63.12
189171881,5.776787,-7.106023,5.707332,-0.085534,0.042234,-0.007727,-0.437000,1.072667,-0.066667,99121.922,9.640,185.057,37.4628703,126.9586425,0.26,140.700,16,11,48,64,12,0.95,63.12
189176430,5.855823,-7.074888,5.587581,-0.084469,0.041701,-0.010126,-0.437000,1.067667,-0.068333,99121.922,9.640,185.057,37.4628703,126.9586425,0.26,140.700,16,11,48,64,12,0.95,63.12
189211980,5.779182,-7.055728,5.647456,-0.082337,0.039037,-0.008394,-0.440000,1.069333,-0.069000,99124.344,9.640,184.852,37.4628703,126.9586425,0.31,140.700,16,11,48,68,12,0.95,63.12
189216541,5.736072,-7.041358,5.613926,-0.085801,0.043966,-0.008527,-0.440000,1.069333,-0.069000,99124.344,9.640,184.852,37.4628703,126.9586425,0.31,140.700,16,11,48,68,12,0.95,63.12
189251000,5.750442,-7.015013,5.678592,-0.083802,0.041701,-0.008926,-0.438667,1.069333,-0.063667,99124.344,9.640,184.852,37.4628703,126.9586423,0.24,140.700,16,11,48,72,12,0.95,63.12
189255517,5.786367,-7.048543,5.580396,-0.083003,0.041835,-0.008394,-0.440000,1.068667,-0.060000,99124.344,9.640,184.852,37.4628703,126.9586423,0.24,140.700,16,11,48,72,12,0.95,63.12
189291119,5.819898,-7.084468,5.561235,-0.084202,0.040636,-0.009593,-0.437667,1.067667,-0.066667,99123.430,9.640,184.930,37.4628703,126.9586423,0.15,140.700,16,11,48,76,12,0.95,63.12
189295675,5.764812,-7.031778,5.695357,-0.084335,0.040636,-0.008394,-0.436000,1.066000,-0.066667,99123.430,9.640,184.930,37.4628703,126.9586423,0.15,140.700,16,11,48,76,12,0.95,63.12
189329079,5.745652,-7.041358,5.616321,-0.085002,0.039703,-0.009060,-0.437000,1.068667,-0.062000,99123.430,9.640,184.930,37.4628703,126.9586423,0.06,140.700,16,11,48,80,12,0.95,63.12
189333637,5.714517,-7.072493,5.678592,-0.084868,0.043300,-0.010259,-0.437667,1.071000,-0.063667,99122.438,9.640,185.014,37.4628703,126.9586423,0.06,140.700,16,11,48,80,12,0.95,63.12
189369187,5.769602,-7.062913,5.635481,-0.083802,0.039969,-0.007461,-0.438667,1.067000,-0.062000,99122.438,9.640,185.014,37.4628703,126.9586422,0.11,140.700,16,11,48,84,12,0.95,63.12
189373758,5.726492,-7.089258,5.628296,-0.084469,0.043700,-0.008260,-0.440667,1.069333,-0.061000,99122.438,9.640,185.014,37.4628703,126.9586422,0.11,140.700,16,11,48,84,12,0.95,63.12
189410648,5.764812,-7.089258,5.621111,-0.083536,0.044499,-0.009326,-0.439000,1.068667,-0.062667,99123.766,9.640,184.901,37.4628702,126.9586422,0.19,140.700,16,11,48,88,12,0.95,63.12
189415197,5.803133,-7.074888,5.604346,-0.084868,0.042900,-0.010525,-0.438667,1.064333,-0.063667,99123.766,9.640,184.901,37.4628702,126.9586422,0.19,140.700,16,11,48,88,12,0.95,63.12
189450853,5.726492,-7.060518,5.599556,-0.082737,0.038637,-0.009593,-0.434333,1.068667,-0.061000,99123.766,9.640,184.901,37.4628702,126.9586420,0.06,140.700,16,11,48,92,12,0.95,63.12
189455401,5.800737,-7.041358,5.558841,-0.085268,0.042101,-0.006662,-0.437000,1.067000,-0.060000,99123.766,9.640,184.901,37.4628702,126.9586420,0.06,140.800,16,11,48,92,12,0.95,63.12
189497556,5.774392,-7.094048,5.566026,-0.083136,0.039303,-0.008527,-0.440000,1.064333,-0.062667,99123.703,9.630,184.906,37.4628700,126.9586420,0.15,140.800,16,11,48,96,12,0.95,63.12
189502143,5.762417,-7.003037,5.637876,-0.080738,0.042101,-0.008127,-0.437667,1.063667,-0.060000,99123.703,9.630,184.906,37.4628700,126.9586420,0.15,140.800,16,11,48,96,12,0.95,63.12
189531893,5.726492,-7.079678,5.628296,-0.083403,0.043034,-0.007994,-0.435333,1.069333,-0.065667,99121.352,9.630,185.106,37.4628700,126.9586420,0.2,140.800,16,11,49,0,12,0.95,63.12
189536475,5.791157,-7.060518,5.621111,-0.084202,0.043034,-0.008260,-0.435333,1.069333,-0.065667,99121.352,9.630,185.106,37.4628700,126.9586420,0.2,140.800,16,11,49,0,12,0.95,63.12
189572242,5.776787,-7.000642,5.657036,-0.085002,0.039969,-0.007061,-0.439000,1.067667,-0.062667,99121.352,9.630,185.106,37.4628700,126.9586420,0.2,140.800,16,11,49,4,12,0.95,63.12
189576820,5.788763,-7.062913,5.503755,-0.084069,0.040103,-0.007328,-0.439000,1.067667,-0.062667,99121.352,9.630,185.106,37.4628700,126.9586420,0.2,140.800,16,11,49,4,12,0.95,63.12
189615749,5.807923,-7.050938,5.597161,-0.083536,0.040369,-0.008793,-0.437667,1.067000,-0.062000,99120.836,9.640,185.149,37.4628700,126.9586420,0.13,140.800,16,11,49,8,12,0.95,63.12
189620329,5.721702,-7.024592,5.628296,-0.084335,0.043700,-0.006528,-0.439000,1.066000,-0.061000,99120.836,9.640,185.149,37.4628700,126.9586420,0.13,140.800,16,11,49,8,12,0.95,63.12
189652095,5.750442,-7.029383,5.676197,-0.082737,0.040636,-0.007727,-0.439000,1.067000,-0.061000,99120.836,9.640,185.149,37.4628700,126.9586418,0.06,140.800,16,11,49,12,12,0.95,63.12
189656619,5.829478,-7.036568,5.621111,-0.085268,0.039969,-0.009593,-0.440000,1.067667,-0.070333,99121.344,9.640,185.106,37.4628700,126.9586418,0.06,140.800,16,11,49,12,12,0.95,63.12
189692038,5.776787,-7.053333,5.604346,-0.086334,0.041035,-0.008394,-0.440000,1.067667,-0.064333,99121.344,9.640,185.106,37.4628700,126.9586418,0.15,140.800,16,11,49,16,12,0.95,63.12
189696629,5.791157,-7.077283,5.661827,-0.084469,0.043034,-0.008660,-0.440000,1.066000,-0.063667,99121.344,9.640,185.106,37.4628700,126.9586418,0.15,140.800,16,11,49,16,12,0.95,63.12
189732014,5.788763,-7.053333,5.637876,-0.085934,0.042634,-0.008394,-0.437000,1.065333,-0.064333,99117.656,9.630,185.419,37.4628698,126.9586415,0.3,140.800,16,11,49,20,12,0.95,63.12
189736606,5.781578,-7.041358,5.645061,-0.085268,0.040103,-0.006262,-0.434333,1.068667,-0.065667,99117.656,9.630,185.419,37.4628698,126.9586415,0.3,140.900,16,11,49,20,12,0.95,63.12
189772871,5.810318,-7.065308,5.625901,-0.082204,0.043567,-0.007994,-0.439000,1.067000,-0.061000,99117.656,9.630,185.419,37.4628698,126.9586415,0.19,140.900,16,11,49,24,12,0.95,63.12
189777463,5.764812,-7.120393,5.666616,-0.084069,0.040502,-0.007061,-0.443333,1.067000,-0.060000,99117.656,9.630,185.419,37.4628698,126.9586415,0.19,140.900,16,11,49,24,12,0.95,63.12
189810944,5.788763,-7.046148,5.422325,-0.083536,0.040103,-0.010658,-0.436000,1.069333,-0.065667,99120.516,9.630,185.177,37.4628698,126.9586415,0.13,140.900,16,11,49,28,12,0.95,63.12
189815537,5.819898,-7.074888,5.683382,-0.084069,0.038237,-0.010392,-0.439000,1.067667,-0.061000,99120.516,9.630,185.177,37.4628698,126.9586415,0.13,140.900,16,11,49,28,12,0.95,63.12
189849774,5.755232,-7.058123,5.606741,-0.085135,0.041835,-0.007861,-0.441667,1.067667,-0.063667,99121.430,9.640,185.099,37.4628698,126.9586415,0.15,140.900,16,11,49,32,12,0.95,63.12
189854364,5.728887,-7.029383,5.740862,-0.082603,0.042234,-0.007594,-0.438667,1.067000,-0.062667,99121.430,9.640,185.099,37.4628698,126.9586415,0.15,140.900,16,11,49,32,12,0.95,63.12
189895863,5.728887,-7.043753,5.542076,-0.083536,0.043433,-0.011858,-0.437667,1.068667,-0.064333,99121.430,9.640,185.099,37.4628698,126.9586415,0.06,140.900,16,11,49,36,12,0.95,63.12
189900467,5.805528,-6.988667,5.592371,-0.084335,0.040902,-0.008793,-0.438667,1.067667,-0.062667,99121.430,9.640,185.099,37.4628698,126.9586415,0.06,140.900,16,11,49,36,12,0.95,63.12
189932254,5.786367,-7.098838,5.613926,-0.083802,0.041968,-0.006129,-0.440667,1.070333,-0.063667,99119.414,9.640,185.270,37.4628698,126.9586415,0.11,140.900,16,11,49,40,12,0.95,63.12
189936853,5.771997,-7.038963,5.671406,-0.087133,0.041568,-0.007461,-0.437000,1.068667,-0.066667,99119.414,9.640,185.270,37.4628698,126.9586415,0.11,140.900,16,11,49,40,12,0.95,63.12
189971878,5.829478,-7.062913,5.676197,-0.084202,0.041435,-0.007861,-0.437667,1.067667,-0.062667,99119.414,9.640,185.270,37.4628698,126.9586415,0.13,140.900,16,11,49,44,12,0.95,63.12
189976490,5.779182,-7.036568,5.649851,-0.082204,0.042234,-0.011058,-0.437667,1.064333,-0.061000,99116.562,9.640,185.512,37.4628698,126.9586415,0.13,140.900,16,11,49,44,12,0.95,63.12
190011152,5.688172,-7.058123,5.623506,-0.083003,0.039570,-0.009726,-0.436000,1.066000,-0.062667,99116.562,9.640,185.512,37.4628697,126.9586415,0.17,140.900,16,11,49,48,12,0.95,63.12
190015753,5.752837,-7.029383,5.556446,-0.082870,0.039570,-0.007861,-0.436000,1.066000,-0.066667,99116.562,9.640,185.512,37.4628697,126.9586415,0.17,140.900,16,11,49,48,12,0.95,63.12
190052019,5.781578,-7.055728,5.556446,-0.086067,0.040502,-0.010126,-0.437000,1.066000,-0.064333,99118.906,9.640,185.313,37.4628697,126.9586415,0.17,140.900,16,11,49,52,12,0.95,63.12
190056547,5.757627,-7.108418,5.546865,-0.084069,0.042234,-0.009992,-0.440667,1.067000,-0.065667,99118.906,9.640,185.313,37.4628697,126.9586415,0.17,140.900,16,11,49,52,12,0.95,63.12
190091989,5.776787,-7.012618,5.566026,-0.082870,0.038904,-0.008394,-0.437667,1.067000,-0.060000,99118.906,9.640,185.313,37.4628697,126.9586415,0.0,140.900,16,11,49,56,12,0.95,63.12
190096571,5.815108,-7.096443,5.616321,-0.084202,0.041835,-0.009060,-0.437667,1.067000,-0.060000,99118.906,9.640,185.313,37.4628697,126.9586415,0.0,140.900,16,11,49,56,12,0.95,63.12
190131143,5.743257,-7.067703,5.678592,-0.083536,0.041435,-0.010925,-0.435333,1.066000,-0.059000,99120.086,9.640,185.213,37.4628697,126.9586415,0.11,140.900,16,11,49,60,12,0.95,63.12
190135734,5.798343,-7.034173,5.582791,-0.082070,0.042501,-0.008394,-0.435333,1.066000,-0.059000,99120.086,9.640,185.213,37.4628697,126.9586415,0.11,140.900,16,11,49,60,12,0.95,63.12
190172038,5.779182,-7.060518,5.601951,-0.085934,0.041435,-0.010126,-0.441667,1.068667,-0.064333,99119.422,9.630,185.269,37.4628697,126.9586415,0.15,140.900,16,11,49,64,12,0.95,63.12
190176604,5.767207,-7.043753,5.554050,-0.083136,0.039836,-0.008793,-0.439000,1.065333,-0.065667,99119.422,9.630,185.269,37.4628697,126.9586415,0.15,140.900,16,11,49,64,12,0.95,63.12
190211954,5.815108,-7.058123,5.522915,-0.083536,0.041701,-0.007061,-0.437667,1.066000,-0.059000,99119.422,9.630,185.269,37.4628697,126.9586415,0.0,140.900,16,11,49,68,12,0.95,63.12
190216548,5.824688,-7.036568,5.621111,-0.086201,0.043433,-0.009193,-0.440000,1.065333,-0.058333,99119.422,9.630,185.269,37.4628697,126.9586415,0.0,140.900,16,11,49,68,12,0.95,63.12
190251281,5.781578,-7.038963,5.568420,-0.085135,0.038504,-0.007061,-0.440000,1.067667,-0.062000,99120.680,9.630,185.163,37.4628695,126.9586413,0.02,140.900,16,11,49,72,12,0.95,63.12
190255838,5.783972,-7.019803,5.640271,-0.084202,0.042501,-0.008394,-0.440000,1.067667,-0.062000,99120.680,9.630,185.163,37.4628695,126.9586413,0.02,140.900,16,11,49,72,12,0.95,63.12
190291243,5.831873,-7.029383,5.551655,-0.086334,0.041168,-0.008793,-0.439000,1.067000,-0.061000,99120.680,9.630,185.163,37.4628695,126.9586413,0.06,140.900,16,11,49,76,12,0.95,63.12
190295733,5.805528,-7.055728,5.527705,-0.084735,0.039836,-0.009459,-0.441667,1.066000,-0.068333,99120.680,9.630,185.163,37.4628695,126.9586413,0.06,140.900,16,11,49,76,12,0.95,63.12
190330156,5.774392,-7.086863,5.604346,-0.085401,0.042767,-0.009726,-0.440000,1.064333,-0.065667,99116.406,9.630,185.525,37.4628695,126.9586413,0.0,140.900,16,11,49,80,12,0.95,63.12
190334707,5.757627,-6.964717,5.551655,-0.084469,0.039836,-0.008793,-0.437667,1.069333,-0.064333,99116.406,9.630,185.525,37.4628695,126.9586413,0.0,140.900,16,11,49,80,12,0.95,63.12
190370214,5.757627,-7.091653,5.637876,-0.085534,0.039836,-0.008394,-0.437667,1.069333,-0.063667,99120.438,9.630,185.183,37.4628695,126.9586412,0.06,140.900,16,11,49,84,12,0.95,63.12
190374770,5.733677,-7.108418,5.618716,-0.084602,0.040236,-0.009060,-0.440667,1.068667,-0.066667,99120.438,9.630,185.183,37.4628695,126.9586412,0.06,140.900,16,11,49,84,12,0.95,63.12
190412124,5.750442,-7.050938,5.625901,-0.085002,0.040902,-0.009193,-0.438667,1.067000,-0.070333,99120.438,9.630,185.183,37.4628695,126.9586410,0.07,140.900,16,11,49,88,12,0.95,63.12
190416627,5.783972,-7.065308,5.649851,-0.083403,0.041302,-0.007727,-0.436000,1.066000,-0.068333,99120.438,9.630,185.183,37.4628695,126.9586410,0.07,141.000,16,11,49,88,12,0.95,63.12
190451110,5.798343,-7.074888,5.616321,-0.081937,0.041835,-0.008660,-0.440667,1.068667,-0.066667,99119.594,9.630,185.255,37.4628693,126.9586410,0.13,141.000,16,11,49,92,12,0.95,63.12
190455639,5.791157,-7.034173,5.566026,-0.086734,0.039303,-0.008260,-0.437667,1.070333,-0.064333,99119.594,9.630,185.255,37.4628693,126.9586410,0.13,141.000,16,11,49,92,12,0.95,63.12
190498291,5.760022,-6.993457,5.647456,-0.083802,0.041835,-0.010658,-0.437000,1.067000,-0.064333,99121.188,9.630,185.120,37.4628693,126.9586410,0.04,141.000,16,11,49,96,12,0.95,63.12
190502879,5.810318,-7.017407,5.604346,-0.082737,0.039570,-0.010925,-0.439000,1.067667,-0.063667,99121.188,9.630,185.120,37.4628693,126.9586410,0.04,141.000,16,11,49,96,12,0.95,63.12
190532190,5.764812,-7.031778,5.594766,-0.084069,0.040636,-0.005196,-0.439000,1.065333,-0.067333,99121.188,9.630,185.120,37.4628693,126.9586408,0.04,141.000,16,11,50,0,12,0.95,63.12
190536742,5.822293,-7.036568,5.659431,-0.083136,0.041568,-0.007861,-0.438667,1.071000,-0.063667,99121.188,9.630,185.120,37.4628693,126.9586408,0.04,141.000,16,11,50,0,12,0.95,63.12
190571954,5.786367,-7.050938,5.561235,-0.080738,0.042101,-0.007994,-0.435333,1.064333,-0.071000,99119.414,9.640,185.270,37.4628693,126.9586408,0.09,141.000,16,11,50,4,12,0.95,63.12
190576541,5.733677,-7.012618,5.611531,-0.085002,0.040902,-0.009726,-0.440000,1.067667,-0.067333,99119.414,9.640,185.270,37.4628693,126.9586408,0.09,141.000,16,11,50,4,12,0.95,63.12
190615283,5.767207,-7.067703,5.616321,-0.083536,0.041168,-0.010126,-0.437667,1.065333,-0.062667,99119.414,9.640,185.270,37.4628692,126.9586407,0.0,141.000,16,11,50,8,12,0.95,63.12
190619818,5.724097,-7.007827,5.671406,-0.082603,0.043034,-0.006662,-0.438667,1.067000,-0.063667,99119.414,9.640,185.270,37.4628692,126.9586407,0.0,141.000,16,11,50,8,12,0.95,63.12
190651248,5.771997,-7.019803,5.601951,-0.083003,0.038371,-0.010126,-0.440000,1.066000,-0.064333,99119.844,9.630,185.234,37.4628692,126.9586405,0.19,141.000,16,11,50,12,12,0.95,63.12
190655733,5.764812,-7.070098,5.601951,-0.081271,0.041568,-0.009726,-0.438667,1.067000,-0.062667,99119.844,9.630,185.234,37.4628692,126.9586405,0.19,141.000,16,11,50,12,12,0.95,63.12
190691322,5.769602,-7.082073,5.664221,-0.084469,0.043034,-0.010392,-0.437000,1.072667,-0.067333,99119.258,9.630,185.283,37.4628692,126.9586405,0.09,141.000,16,11,50,16,12,0.95,63.12
190695866,5.678592,-7.062913,5.659431,-0.085668,0.041701,-0.008394,-0.436000,1.070333,-0.068333,99119.258,9.630,185.283,37.4628692,126.9586405,0.09,141.000,16,11,50,16,12,0.95,63.12
190731147,5.731282,-7.053333,5.558841,-0.083403,0.041302,-0.009593,-0.431000,1.065333,-0.064333,99119.258,9.630,185.283,37.4628692,126.9586403,0.11,141.000,16,11,50,20,12,0.95,63.12
190735656,5.774392,-7.096443,5.556446,-0.082470,0.041568,-0.005329,-0.437667,1.064333,-0.066667,99119.258,9.630,185.283,37.4628692,126.9586403,0.11,141.000,16,11,50,20,12,0.95,63.12
190771341,5.798343,-7.022198,5.640271,-0.083403,0.042234,-0.007727,-0.438667,1.070333,-0.061000,99123.031,9.630,184.963,37.4628692,126.9586403,0.13,141.000,16,11,50,24,12,0.95,63.12
190775917,5.745652,-7.031778,5.592371,-0.084602,0.041168,-0.008660,-0.438667,1.070333,-0.061000,99123.031,9.630,184.963,37.4628692,126.9586403,0.13,141.100,16,11,50,24,12,0.95,63.12
190810208,5.779182,-7.010222,5.556446,-0.084469,0.041701,-0.009326,-0.438667,1.065333,-0.064333,99123.031,9.630,184.963,37.4628690,126.9586405,0.11,141.100,16,11,50,28,12,0.95,63.12
190814671,5.731282,-7.070098,5.654641,-0.083669,0.040236,-0.007194,-0.438667,1.065333,-0.064333,99121.438,9.630,185.098,37.4628690,126.9586405,0.11,141.100,16,11,50,28,12,0.95,63.12
190850209,5.767207,-7.050938,5.637876,-0.083403,0.043034,-0.006662,-0.438667,1.070333,-0.063667,99121.438,9.630,185.098,37.4628690,126.9586405,0.09,141.100,16,11,50,32,12,0.95,63.12
190854759,5.760022,-7.043753,5.748047,-0.083403,0.041435,-0.008926,-0.440000,1.067000,-0.063667,99121.438,9.630,185.098,37.4628690,126.9586405,0.09,141.100,16,11,50,32,12,0.95,63.12
190894753,5.819898,-7.079678,5.561235,-0.085934,0.039703,-0.010792,-0.435333,1.066000,-0.062667,99122.523,9.630,185.006,37.4628690,126.9586403,0.13,141.100,16,11,50,36,12,0.95,63.12
190931139,5.779182,-7.053333,5.606741,-0.086600,0.041568,-0.009193,-0.438667,1.066000,-0.062000,99122.523,9.630,185.006,37.4628690,126.9586403,0.02,141.100,16,11,50,40,12,0.95,63.12
190935784,5.764812,-7.046148,5.532495,-0.086067,0.041835,-0.008260,-0.437000,1.063667,-0.061000,99122.523,9.630,185.006,37.4628690,126.9586403,0.02,141.100,16,11,50,40,12,0.95,63.12
190971246,5.776787,-7.026988,5.635481,-0.085002,0.042368,-0.008260,-0.441667,1.069333,-0.060000,99119.258,9.630,185.283,37.4628688,126.9586403,0.11,141.100,16,11,50,44,12,0.95,63.12
190975835,5.748047,-7.017407,5.623506,-0.085534,0.037571,-0.007861,-0.441667,1.069333,-0.060000,99119.258,9.630,185.283,37.4628688,126.9586403,0.11,141.100,16,11,50,44,12,0.95,63.12
191012059,5.786367,-7.024592,5.568420,-0.081404,0.038904,-0.008260,-0.437667,1.068667,-0.063667,99119.500,9.630,185.263,37.4628688,126.9586402,0.07,141.100,16,11,50,48,12,0.95,63.12
191016678,5.755232,-7.110813,5.498965,-0.084735,0.043700,-0.013190,-0.435333,1.068667,-0.063667,99119.500,9.630,185.263,37.4628688,126.9586402,0.07,141.100,16,11,50,48,12,0.95,63.12
191051064,5.812713,-6.993457,5.573211,-0.087533,0.042368,-0.004530,-0.433667,1.066000,-0.061000,99119.500,9.630,185.263,37.4628688,126.9586402,0.06,141.100,16,11,50,52,12,0.95,63.12
191055648,5.750442,-7.060518,5.685777,-0.081937,0.041835,-0.004263,-0.437667,1.067000,-0.063667,99119.500,9.630,185.263,37.4628688,126.9586402,0.06,141.100,16,11,50,52,12,0.95,63.12
191091141,5.783972,-7.062913,5.570816,-0.083936,0.042101,-0.012257,-0.437667,1.067667,-0.064333,99120.008,9.630,185.220,37.4628688,126.9586400,0.22,141.100,16,11,50,56,12,0.95,63.12
191095755,5.752837,-7.026988,5.544470,-0.083136,0.043433,-0.011724,-0.440000,1.067000,-0.065667,99120.008,9.630,185.220,37.4628688,126.9586400,0.22,141.200,16,11,50,56,12,0.95,63.12
191132121,5.791157,-6.967112,5.657036,-0.084335,0.042634,-0.008260,-0.438667,1.067667,-0.060000,99120.008,9.630,185.220,37.4628687,126.9586400,0.17,141.200,16,11,50,60,12,0.95,63.12
191136697,5.829478,-7.070098,5.633086,-0.086067,0.042101,-0.004796,-0.438667,1.067667,-0.060000,99120.516,9.630,185.177,37.4628687,126.9586400,0.17,141.200,16,11,50,60,12,0.95,63.12
191172017,5.743257,-7.125184,5.601951,-0.084469,0.040636,-0.010392,-0.437000,1.068667,-0.061000,99120.516,9.630,185.177,37.4628687,126.9586400,0.17,141.200,16,11,50,64,12,0.95,63.12
191176625,5.764812,-7.074888,5.594766,-0.083403,0.042501,-0.010792,-0.437000,1.068667,-0.061000,99120.516,9.630,185.177,37.4628687,126.9586400,0.17,141.200,16,11,50,64,12,0.95,63.12
191211155,5.817502,-7.058123,5.714517,-0.084868,0.041835,-0.008660,-0.440667,1.068667,-0.062667,99121.594,9.640,185.085,37.4628687,126.9586400,0.11,141.200,16,11,50,68,12,0.95,63.12
191215746,5.704937,-7.019803,5.661827,-0.087133,0.039170,-0.007194,-0.439000,1.069333,-0.059000,99121.594,9.640,185.085,37.4628687,126.9586400,0.11,141.200,16,11,50,68,12,0.95,63.12
191251395,5.807923,-7.046148,5.642666,-0.083403,0.044233,-0.007994,-0.437667,1.067000,-0.060000,99121.594,9.640,185.085,37.4628687,126.9586398,0.02,141.200,16,11,50,72,12,0.95,63.12
191255991,5.843848,-7.065308,5.585186,-0.086067,0.043300,-0.010525,-0.436000,1.068667,-0.062667,99121.594,9.640,185.085,37.4628687,126.9586398,0.02,141.200,16,11,50,72,12,0.95,63.12
191290124,5.795948,-7.062913,5.601951,-0.084602,0.043034,-0.010792,-0.437667,1.069333,-0.062667,99117.484,9.630,185.433,37.4628685,126.9586398,0.13,141.200,16,11,50,76,12,0.95,63.12
191294720,5.740862,-7.091653,5.604346,-0.084335,0.042101,-0.007861,-0.439000,1.072667,-0.063667,99117.484,9.630,185.433,37.4628685,126.9586398,0.13,141.200,16,11,50,76,12,0.95,63.12
191330145,5.791157,-7.046148,5.544470,-0.085135,0.044100,-0.006662,-0.439000,1.069333,-0.060000,99117.234,9.640,185.455,37.4628685,126.9586397,0.13,141.200,16,11,50,80,12,0.95,63.12
191334707,5.745652,-7.012618,5.654641,-0.084069,0.040502,-0.007194,-0.439000,1.066000,-0.059000,99117.234,9.640,185.455,37.4628685,126.9586397,0.13,141.300,16,11,50,80,12,0.95,63.12
191371338,5.721702,-7.048543,5.580396,-0.085268,0.042900,-0.006528,-0.436000,1.065333,-0.061000,99117.234,9.640,185.455,37.4628685,126.9586397,0.19,141.300,16,11,50,84,12,0.95,63.12
191375945,5.783972,-7.077283,5.640271,-0.083403,0.040636,-0.006528,-0.434333,1.069333,-0.062667,99117.234,9.640,185.455,37.4628685,126.9586397,0.19,141.300,16,11,50,84,12,0.95,63.12
191411367,5.781578,-7.038963,5.563631,-0.083669,0.042767,-0.009060,-0.438667,1.072000,-0.062667,99119.336,9.630,185.277,37.4628685,126.9586397,0.26,141.300,16,11,50,88,12,0.95,63.12
191415971,5.822293,-7.125184,5.630691,-0.087000,0.041035,-0.007328,-0.435333,1.069333,-0.065667,99119.336,9.630,185.277,37.4628685,126.9586397,0.26,141.300,16,11,50,88,12,0.95,63.12
191452008,5.752837,-7.053333,5.621111,-0.085801,0.040502,-0.007727,-0.436000,1.065333,-0.061000,99119.336,9.630,185.277,37.4628683,126.9586397,0.17,141.300,16,11,50,92,12,0.95,63.12
191456584,5.805528,-7.022198,5.613926,-0.083136,0.041435,-0.010658,-0.437667,1.067667,-0.062000,99119.336,9.630,185.277,37.4628683,126.9586397,0.17,141.300,16,11,50,92,12,0.95,63.12
191498327,5.762417,-7.005433,5.657036,-0.083536,0.040502,-0.007328,-0.440667,1.067000,-0.062667,99117.922,9.630,185.396,37.4628683,126.9586397,0.07,141.300,16,11,50,96,12,0.95,63.12
191502839,5.728887,-7.089258,5.635481,-0.084868,0.042501,-0.007328,-0.440667,1.066000,-0.061000,99117.922,9.630,185.396,37.4628683,126.9586397,0.07,141.300,16,11,50,96,12,0.95,63.12
191531300,5.728887,-7.005433,5.647456,-0.084069,0.042767,-0.009859,-0.437667,1.068667,-0.062667,99118.164,9.630,185.376,37.4628683,126.9586395,0.07,141.300,16,11,51,0,12,0.95,63.12
191535897,5.774392,-7.077283,5.666616,-0.086067,0.042900,-0.013323,-0.435333,1.067667,-0.062667,99118.164,9.630,185.376,37.4628683,126.9586395,0.07,141.300,16,11,51,0,12,0.95,63.12
191572092,5.721702,-7.003037,5.647456,-0.085135,0.040636,-0.009726,-0.438667,1.067667,-0.063667,99118.164,9.630,185.376,37.4628683,126.9586395,0.19,141.300,16,11,51,4,12,0.95,63.12
191576699,5.815108,-7.096443,5.731282,-0.085401,0.040103,-0.007461,-0.438667,1.065333,-0.065667,99118.164,9.630,185.376,37.4628683,126.9586395,0.19,141.300,16,11,51,4,12,0.95,63.12
191615830,5.769602,-6.971902,5.628296,-0.084469,0.040636,-0.007861,-0.440000,1.066000,-0.062000,99114.477,9.630,185.688,37.4628683,126.9586395,0.17,141.300,16,11,51,8,12,0.95,63.12
191620447,5.781578,-7.055728,5.599556,-0.084868,0.041835,-0.010259,-0.440000,1.068667,-0.066667,99114.477,9.630,185.688,37.4628683,126.9586395,0.17,141.300,16,11,51,8,12,0.95,63.12
191651115,5.795948,-7.070098,5.616321,-0.084469,0.041168,-0.009326,-0.437667,1.067667,-0.065667,99115.398,9.630,185.610,37.4628682,126.9586395,0.06,141.300,16,11,51,12,12,0.95,63.12
191655702,5.750442,-7.043753,5.635481,-0.084602,0.040236,-0.007594,-0.437667,1.067667,-0.065667,99115.398,9.630,185.610,37.4628682,126.9586395,0.06,141.400,16,11,51,12,12,0.95,63.12
191691351,5.719307,-7.055728,5.649851,-0.084202,0.041302,-0.008127,-0.440667,1.067667,-0.059000,99115.398,9.630,185.610,37.4628682,126.9586395,0.04,141.400,16,11,51,16,12,0.95,63.12
191695909,5.776787,-7.000642,5.556446,-0.083003,0.041302,-0.006528,-0.440000,1.067000,-0.061000,99115.398,9.630,185.610,37.4628682,126.9586395,0.04,141.400,16,11,51,16,12,0.95,63.12
191732018,5.774392,-7.062913,5.599556,-0.082470,0.041168,-0.008260,-0.439000,1.067000,-0.062000,99116.328,9.630,185.531,37.4628682,126.9586395,0.06,141.400,16,11,51,20,12,0.95,63.12
191736538,5.769602,-7.022198,5.561235,-0.083403,0.043700,-0.009193,-0.438667,1.069333,-0.066667,99116.328,9.630,185.531,37.4628682,126.9586395,0.06,141.400,16,11,51,20,12,0.95,63.12
191770589,5.740862,-7.010222,5.594766,-0.082337,0.042368,-0.010392,-0.441667,1.071000,-0.067333,99116.328,9.630,185.531,37.4628680,126.9586393,0.06,141.400,16,11,51,24,12,0.95,63.12
191775198,5.755232,-7.019803,5.637876,-0.084469,0.038770,-0.009726,-0.441667,1.071000,-0.067333,99116.328,9.630,185.531,37.4628680,126.9586393,0.06,141.400,16,11,51,24,12,0.95,63.12
191809383,5.690567,-7.060518,5.680986,-0.082737,0.041035,-0.009859,-0.438667,1.069333,-0.064333,99115.320,9.630,185.617,37.4628680,126.9586393,0.09,141.400,16,11,51,28,12,0.95,63.12
191813905,5.769602,-7.079678,5.685777,-0.081671,0.043300,-0.010126,-0.440667,1.068667,-0.071000,99115.320,9.630,185.617,37.4628680,126.9586393,0.09,141.400,16,11,51,28,12,0.95,63.12
191850657,5.745652,-7.072493,5.580396,-0.083802,0.043966,-0.007861,-0.438667,1.070333,-0.068333,99116.922,9.630,185.481,37.4628680,126.9586393,0.02,141.400,16,11,51,32,12,0.95,63.12
191855272,5.783972,-7.086863,5.587581,-0.084469,0.044233,-0.007861,-0.440667,1.069333,-0.068333,99116.922,9.630,185.481,37.4628680,126.9586393,0.02,141.400,16,11,51,32,12,0.95,63.12
191891304,5.745652,-7.043753,5.628296,-0.079672,0.042501,-0.008793,-0.440000,1.067667,-0.067333,99116.922,9.630,185.481,37.4628680,126.9586393,0.04,141.400,16,11,51,36,12,0.95,63.12
191895926,5.745652,-7.089258,5.616321,-0.085002,0.043966,-0.008926,-0.440000,1.067667,-0.067333,99116.922,9.630,185.481,37.4628680,126.9586393,0.04,141.400,16,11,51,36,12,0.95,63.12
191931048,5.824688,-7.046148,5.645061,-0.083669,0.044233,-0.009060,-0.436000,1.064333,-0.065667,99116.828,9.630,185.489,37.4628678,126.9586392,0.09,141.400,16,11,51,40,12,0.95,63.12
191935667,5.731282,-7.046148,5.570816,-0.084735,0.038637,-0.009060,-0.438667,1.067667,-0.066667,99116.828,9.630,185.489,37.4628678,126.9586392,0.09,141.400,16,11,51,40,12,0.95,63.12
191971248,5.740862,-7.120393,5.585186,-0.082603,0.039303,-0.009193,-0.438667,1.071000,-0.066667,99116.828,9.630,185.489,37.4628678,126.9586392,0.15,141.400,16,11,51,44,12,0.95,63.12
191975853,5.757627,-7.060518,5.613926,-0.086067,0.042101,-0.007861,-0.436000,1.067000,-0.065667,99114.297,9.630,185.704,37.4628678,126.9586392,0.15,141.500,16,11,51,44,12,0.95,63.12
192012122,5.714517,-7.017407,5.642666,-0.084735,0.041701,-0.005196,-0.440000,1.068667,-0.063667,99114.297,9.630,185.704,37.4628678,126.9586392,0.07,141.500,16,11,51,48,12,0.95,63.12
192016720,5.769602,-7.034173,5.594766,-0.085534,0.040103,-0.008127,-0.440000,1.068667,-0.063667,99114.297,9.630,185.704,37.4628678,126.9586392,0.07,141.500,16,11,51,48,12,0.95,63.12
192051102,5.774392,-7.094048,5.640271,-0.083270,0.042101,-0.010792,-0.436000,1.068667,-0.068333,99115.328,9.620,185.616,37.4628678,126.9586392,0.07,141.500,16,11,51,52,12,0.95,63.12
192055690,5.769602,-7.074888,5.695357,-0.087533,0.040902,-0.008260,-0.438667,1.067000,-0.064333,99115.328,9.620,185.616,37.4628678,126.9586392,0.07,141.500,16,11,51,52,12,0.95,63.12
192091068,5.776787,-7.034173,5.652246,-0.084469,0.039703,-0.009992,-0.439000,1.066000,-0.066667,99115.328,9.620,185.616,37.4628677,126.9586392,0.07,141.500,16,11,51,56,12,0.95,63.12
192095688,5.769602,-7.019803,5.680986,-0.083669,0.041701,-0.009193,-0.439000,1.063667,-0.064333,99115.328,9.620,185.616,37.4628677,126.9586392,0.07,141.500,16,11,51,56,12,0.95,63.12
192130869,5.752837,-6.988667,5.599556,-0.086600,0.041302,-0.008260,-0.440000,1.066000,-0.062000,99117.758,9.630,185.410,37.4628677,126.9586390,0.07,141.500,16,11,51,60,12,0.95,63.12
192135452,5.764812,-7.048543,5.597161,-0.081804,0.041835,-0.008527,-0.437000,1.067667,-0.064333,99117.758,9.630,185.410,37.4628677,126.9586390,0.07,141.500,16,11,51,60,12,0.95,63.12
192171228,5.841453,-7.077283,5.628296,-0.081804,0.041035,-0.009859,-0.437000,1.066000,-0.064333,99115.836,9.620,185.573,37.4628677,126.9586390,0.07,141.500,16,11,51,64,12,0.95,63.12
192175839,5.743257,-7.031778,5.645061,-0.084202,0.041168,-0.007461,-0.438667,1.066000,-0.063667,99115.836,9.620,185.573,37.4628677,126.9586390,0.07,141.500,16,11,51,64,12,0.95,63.12
192211316,5.788763,-7.067703,5.640271,-0.085268,0.040103,-0.011325,-0.439000,1.067667,-0.064333,99115.836,9.620,185.573,37.4628675,126.9586388,0.06,141.500,16,11,51,68,12,0.95,63.12
192215930,5.779182,-7.046148,5.585186,-0.084202,0.041302,-0.006662,-0.439000,1.066000,-0.065667,99115.836,9.620,185.573,37.4628675,126.9586388,0.06,141.500,16,11,51,68,12,0.95,63.12
192250964,5.757627,-7.029383,5.611531,-0.085934,0.040103,-0.007861,-0.439000,1.066000,-0.061000,99115.742,9.630,185.581,37.4628675,126.9586388,0.13,141.500,16,11,51,72,12,0.95,63.12
192255575,5.757627,-7.098838,5.640271,-0.085668,0.041701,-0.007594,-0.436000,1.066000,-0.059000,99115.742,9.630,185.581,37.4628675,126.9586388,0.13,141.600,16,11,51,72,12,0.95,63.12
192289450,5.769602,-7.065308,5.637876,-0.080338,0.041968,-0.005329,-0.442333,1.065333,-0.065667,99115.742,9.630,185.581,37.4628675,126.9586388,0.13,141.600,16,11,51,76,12,0.95,63.12
192294073,5.798343,-7.065308,5.582791,-0.084868,0.044366,-0.010925,-0.435333,1.067667,-0.062000,99114.492,9.620,185.687,37.4628675,126.9586388,0.13,141.600,16,11,51,76,12,0.95,63.12
